condition	 subNum	 trialNo	 fixNo	 xFix	 xFixFlip	 yFix	 targSide	 trialType	 easySide	 accuracy	 RT
linesB	 71	 17	 1	 528	 -16	 368	 left	 properTrial	 left	 1	 2.125
linesB	 71	 17	 2	 710	 -198	 382	 left	 properTrial	 left	 1	 2.125
linesB	 71	 17	 3	 733	 -221	 367	 left	 properTrial	 left	 1	 2.125
linesB	 71	 17	 4	 958	 -446	 360	 left	 properTrial	 left	 1	 2.125
linesB	 71	 17	 5	 262	 250	 235	 left	 properTrial	 left	 1	 2.125
linesB	 71	 17	 6	 243	 269	 231	 left	 properTrial	 left	 1	 2.125
linesB	 71	 17	 7	 241	 271	 220	 left	 properTrial	 left	 1	 2.125
linesB	 71	 18	 1	 532	 -20	 364	 right	 properTrial	 left	 0	 5.272
linesB	 71	 18	 2	 629	 -117	 355	 right	 properTrial	 left	 0	 5.272
linesB	 71	 18	 3	 186	 326	 261	 right	 properTrial	 left	 0	 5.272
linesB	 71	 18	 4	 900	 -388	 387	 right	 properTrial	 left	 0	 5.272
linesB	 71	 18	 5	 985	 -473	 370	 right	 properTrial	 left	 0	 5.272
linesB	 71	 18	 6	 996	 -484	 365	 right	 properTrial	 left	 0	 5.272
linesB	 71	 18	 7	 990	 -478	 245	 right	 properTrial	 left	 0	 5.272
linesB	 71	 18	 8	 961	 -449	 90	 right	 properTrial	 left	 0	 5.272
linesB	 71	 18	 9	 952	 -440	 42	 right	 properTrial	 left	 0	 5.272
linesB	 71	 18	 10	 951	 -439	 40	 right	 properTrial	 left	 0	 5.272
linesB	 71	 18	 11	 555	 -43	 74	 right	 properTrial	 left	 0	 5.272
linesB	 71	 18	 12	 595	 -83	 72	 right	 properTrial	 left	 0	 5.272
linesB	 71	 18	 13	 760	 -248	 658	 right	 properTrial	 left	 0	 5.272
linesB	 71	 18	 14	 819	 -307	 657	 right	 properTrial	 left	 0	 5.272
linesB	 71	 18	 15	 987	 -475	 654	 right	 properTrial	 left	 0	 5.272
linesB	 71	 18	 16	 980	 -468	 602	 right	 properTrial	 left	 0	 5.272
linesB	 71	 18	 17	 1003	 -491	 533	 right	 properTrial	 left	 0	 5.272
linesB	 71	 18	 18	 582	 -70	 666	 right	 properTrial	 left	 0	 5.272
linesB	 71	 19	 1	 513	 1	 401	 right	 properTrial	 right	 1	 1.368
linesB	 71	 19	 2	 827	 315	 172	 right	 properTrial	 right	 1	 1.368
linesB	 71	 19	 3	 882	 370	 172	 right	 properTrial	 right	 1	 1.368
linesB	 71	 19	 4	 487	 -25	 368	 right	 properTrial	 right	 1	 1.368
linesB	 71	 20	 1	 525	 13	 381	 left	 properTrial	 right	 0	 7.229
linesB	 71	 20	 2	 199	 -313	 367	 left	 properTrial	 right	 0	 7.229
linesB	 71	 20	 3	 206	 -306	 230	 left	 properTrial	 right	 0	 7.229
linesB	 71	 20	 4	 771	 259	 216	 left	 properTrial	 right	 0	 7.229
linesB	 71	 20	 5	 937	 425	 205	 left	 properTrial	 right	 0	 7.229
linesB	 71	 20	 6	 960	 448	 162	 left	 properTrial	 right	 0	 7.229
linesB	 71	 20	 7	 962	 450	 165	 left	 properTrial	 right	 0	 7.229
linesB	 71	 20	 8	 270	 -242	 602	 left	 properTrial	 right	 0	 7.229
linesB	 71	 20	 9	 328	 -184	 669	 left	 properTrial	 right	 0	 7.229
linesB	 71	 20	 10	 422	 -90	 670	 left	 properTrial	 right	 0	 7.229
linesB	 71	 20	 11	 416	 -96	 637	 left	 properTrial	 right	 0	 7.229
linesB	 71	 20	 12	 184	 -328	 170	 left	 properTrial	 right	 0	 7.229
linesB	 71	 20	 13	 144	 -368	 103	 left	 properTrial	 right	 0	 7.229
linesB	 71	 20	 14	 51	 -461	 101	 left	 properTrial	 right	 0	 7.229
linesB	 71	 20	 15	 477	 -35	 190	 left	 properTrial	 right	 0	 7.229
linesB	 71	 20	 16	 508	 -4	 187	 left	 properTrial	 right	 0	 7.229
linesB	 71	 20	 17	 496	 -16	 120	 left	 properTrial	 right	 0	 7.229
linesB	 71	 20	 18	 492	 -20	 58	 left	 properTrial	 right	 0	 7.229
linesB	 71	 20	 19	 489	 -23	 90	 left	 properTrial	 right	 0	 7.229
linesB	 71	 20	 20	 451	 -61	 95	 left	 properTrial	 right	 0	 7.229
linesB	 71	 20	 21	 147	 -365	 713	 left	 properTrial	 right	 0	 7.229
linesB	 71	 20	 22	 96	 -416	 678	 left	 properTrial	 right	 0	 7.229
linesB	 71	 20	 23	 57	 -455	 659	 left	 properTrial	 right	 0	 7.229
linesB	 71	 20	 24	 176	 -336	 664	 left	 properTrial	 right	 0	 7.229
linesB	 71	 20	 25	 77	 -435	 620	 left	 properTrial	 right	 0	 7.229
linesB	 71	 20	 26	 66	 -446	 577	 left	 properTrial	 right	 0	 7.229
linesB	 71	 20	 27	 286	 -226	 507	 left	 properTrial	 right	 0	 7.229
linesB	 71	 21	 1	 513	 -1	 400	 left	 properTrial	 left	 1	 0.916
linesB	 71	 21	 2	 178	 334	 416	 left	 properTrial	 left	 1	 0.916
linesB	 71	 21	 3	 194	 318	 440	 left	 properTrial	 left	 1	 0.916
linesB	 71	 21	 4	 190	 322	 438	 left	 properTrial	 left	 1	 0.916
linesB	 71	 22	 1	 518	 6	 380	 absent	 properTrial	 right	 0	 4.508
linesB	 71	 22	 2	 288	 -224	 418	 absent	 properTrial	 right	 0	 4.508
linesB	 71	 22	 3	 851	 339	 204	 absent	 properTrial	 right	 0	 4.508
linesB	 71	 22	 4	 918	 406	 199	 absent	 properTrial	 right	 0	 4.508
linesB	 71	 22	 5	 265	 -247	 281	 absent	 properTrial	 right	 0	 4.508
linesB	 71	 22	 6	 257	 -255	 227	 absent	 properTrial	 right	 0	 4.508
linesB	 71	 22	 7	 107	 -405	 187	 absent	 properTrial	 right	 0	 4.508
linesB	 71	 22	 8	 70	 -442	 179	 absent	 properTrial	 right	 0	 4.508
linesB	 71	 22	 9	 478	 -34	 151	 absent	 properTrial	 right	 0	 4.508
linesB	 71	 22	 10	 425	 -87	 130	 absent	 properTrial	 right	 0	 4.508
linesB	 71	 22	 11	 449	 -63	 132	 absent	 properTrial	 right	 0	 4.508
linesB	 71	 22	 12	 478	 -34	 633	 absent	 properTrial	 right	 0	 4.508
linesB	 71	 22	 13	 285	 -227	 672	 absent	 properTrial	 right	 0	 4.508
linesB	 71	 22	 14	 305	 -207	 638	 absent	 properTrial	 right	 0	 4.508
linesB	 71	 22	 15	 538	 26	 334	 absent	 properTrial	 right	 0	 4.508
linesB	 71	 23	 1	 519	 7	 386	 absent	 properTrial	 right	 1	 6.432
linesB	 71	 23	 2	 396	 -116	 368	 absent	 properTrial	 right	 1	 6.432
linesB	 71	 23	 3	 485	 -27	 349	 absent	 properTrial	 right	 1	 6.432
linesB	 71	 23	 4	 935	 423	 162	 absent	 properTrial	 right	 1	 6.432
linesB	 71	 23	 5	 834	 322	 605	 absent	 properTrial	 right	 1	 6.432
linesB	 71	 23	 6	 148	 -364	 159	 absent	 properTrial	 right	 1	 6.432
linesB	 71	 23	 7	 68	 -444	 137	 absent	 properTrial	 right	 1	 6.432
linesB	 71	 23	 8	 128	 -384	 672	 absent	 properTrial	 right	 1	 6.432
linesB	 71	 23	 9	 191	 -321	 605	 absent	 properTrial	 right	 1	 6.432
linesB	 71	 23	 10	 116	 -396	 515	 absent	 properTrial	 right	 1	 6.432
linesB	 71	 23	 11	 436	 -76	 537	 absent	 properTrial	 right	 1	 6.432
linesB	 71	 23	 12	 333	 -179	 525	 absent	 properTrial	 right	 1	 6.432
linesB	 71	 23	 13	 371	 -141	 674	 absent	 properTrial	 right	 1	 6.432
linesB	 71	 23	 14	 323	 -189	 275	 absent	 properTrial	 right	 1	 6.432
linesB	 71	 23	 15	 369	 -143	 238	 absent	 properTrial	 right	 1	 6.432
linesB	 71	 23	 16	 480	 -32	 144	 absent	 properTrial	 right	 1	 6.432
linesB	 71	 23	 17	 368	 -144	 129	 absent	 properTrial	 right	 1	 6.432
linesB	 71	 23	 18	 359	 -153	 100	 absent	 properTrial	 right	 1	 6.432
linesB	 71	 23	 19	 433	 -79	 471	 absent	 properTrial	 right	 1	 6.432
linesB	 71	 23	 20	 461	 -51	 647	 absent	 properTrial	 right	 1	 6.432
linesB	 71	 24	 1	 532	 20	 367	 right	 properTrial	 right	 1	 1.280
linesB	 71	 24	 2	 339	 -173	 356	 right	 properTrial	 right	 1	 1.280
linesB	 71	 24	 3	 559	 47	 148	 right	 properTrial	 right	 1	 1.280
linesB	 71	 24	 4	 585	 73	 156	 right	 properTrial	 right	 1	 1.280
linesB	 71	 25	 1	 528	 -16	 374	 right	 properTrial	 left	 0	 5.644
linesB	 71	 25	 2	 400	 112	 351	 right	 properTrial	 left	 0	 5.644
linesB	 71	 25	 3	 597	 -85	 364	 right	 properTrial	 left	 0	 5.644
linesB	 71	 25	 4	 576	 -64	 199	 right	 properTrial	 left	 0	 5.644
linesB	 71	 25	 5	 673	 -161	 236	 right	 properTrial	 left	 0	 5.644
linesB	 71	 25	 6	 823	 -311	 325	 right	 properTrial	 left	 0	 5.644
linesB	 71	 25	 7	 965	 -453	 681	 right	 properTrial	 left	 0	 5.644
linesB	 71	 25	 8	 999	 -487	 664	 right	 properTrial	 left	 0	 5.644
linesB	 71	 25	 9	 996	 -484	 609	 right	 properTrial	 left	 0	 5.644
linesB	 71	 25	 10	 491	 21	 294	 right	 properTrial	 left	 0	 5.644
linesB	 71	 25	 11	 312	 200	 337	 right	 properTrial	 left	 0	 5.644
linesB	 71	 25	 12	 257	 255	 300	 right	 properTrial	 left	 0	 5.644
linesB	 71	 25	 13	 201	 311	 263	 right	 properTrial	 left	 0	 5.644
linesB	 71	 25	 14	 772	 -260	 221	 right	 properTrial	 left	 0	 5.644
linesB	 71	 25	 15	 600	 -88	 257	 right	 properTrial	 left	 0	 5.644
linesB	 71	 25	 16	 591	 -79	 206	 right	 properTrial	 left	 0	 5.644
linesB	 71	 26	 1	 527	 -15	 397	 absent	 properTrial	 left	 0	 5.922
linesB	 71	 26	 2	 906	 -394	 428	 absent	 properTrial	 left	 0	 5.922
linesB	 71	 26	 3	 550	 -38	 342	 absent	 properTrial	 left	 0	 5.922
linesB	 71	 26	 4	 385	 127	 313	 absent	 properTrial	 left	 0	 5.922
linesB	 71	 26	 5	 279	 233	 325	 absent	 properTrial	 left	 0	 5.922
linesB	 71	 26	 6	 86	 426	 332	 absent	 properTrial	 left	 0	 5.922
linesB	 71	 26	 7	 224	 288	 677	 absent	 properTrial	 left	 0	 5.922
linesB	 71	 26	 8	 607	 -95	 77	 absent	 properTrial	 left	 0	 5.922
linesB	 71	 26	 9	 804	 -292	 96	 absent	 properTrial	 left	 0	 5.922
linesB	 71	 26	 10	 958	 -446	 126	 absent	 properTrial	 left	 0	 5.922
linesB	 71	 26	 11	 951	 -439	 550	 absent	 properTrial	 left	 0	 5.922
linesB	 71	 26	 12	 990	 -478	 522	 absent	 properTrial	 left	 0	 5.922
linesB	 71	 26	 13	 967	 -455	 434	 absent	 properTrial	 left	 0	 5.922
linesB	 71	 26	 14	 953	 -441	 395	 absent	 properTrial	 left	 0	 5.922
linesB	 71	 26	 15	 803	 -291	 366	 absent	 properTrial	 left	 0	 5.922
linesB	 71	 27	 1	 522	 -10	 395	 absent	 properTrial	 left	 1	 9.595
linesB	 71	 27	 2	 591	 -79	 353	 absent	 properTrial	 left	 1	 9.595
linesB	 71	 27	 3	 316	 196	 381	 absent	 properTrial	 left	 1	 9.595
linesB	 71	 27	 4	 832	 -320	 199	 absent	 properTrial	 left	 1	 9.595
linesB	 71	 27	 5	 957	 -445	 149	 absent	 properTrial	 left	 1	 9.595
linesB	 71	 27	 6	 997	 -485	 141	 absent	 properTrial	 left	 1	 9.595
linesB	 71	 27	 7	 568	 -56	 89	 absent	 properTrial	 left	 1	 9.595
linesB	 71	 27	 8	 756	 -244	 658	 absent	 properTrial	 left	 1	 9.595
linesB	 71	 27	 9	 955	 -443	 708	 absent	 properTrial	 left	 1	 9.595
linesB	 71	 27	 10	 670	 -158	 698	 absent	 properTrial	 left	 1	 9.595
linesB	 71	 27	 11	 675	 -163	 645	 absent	 properTrial	 left	 1	 9.595
linesB	 71	 27	 12	 637	 -125	 612	 absent	 properTrial	 left	 1	 9.595
linesB	 71	 27	 13	 652	 -140	 575	 absent	 properTrial	 left	 1	 9.595
linesB	 71	 27	 14	 754	 -242	 554	 absent	 properTrial	 left	 1	 9.595
linesB	 71	 27	 15	 791	 -279	 520	 absent	 properTrial	 left	 1	 9.595
linesB	 71	 27	 16	 821	 -309	 527	 absent	 properTrial	 left	 1	 9.595
linesB	 71	 27	 17	 709	 -197	 388	 absent	 properTrial	 left	 1	 9.595
linesB	 71	 27	 18	 635	 -123	 315	 absent	 properTrial	 left	 1	 9.595
linesB	 71	 27	 19	 971	 -459	 310	 absent	 properTrial	 left	 1	 9.595
linesB	 71	 27	 20	 899	 -387	 304	 absent	 properTrial	 left	 1	 9.595
linesB	 71	 27	 21	 990	 -478	 151	 absent	 properTrial	 left	 1	 9.595
linesB	 71	 27	 22	 575	 -63	 187	 absent	 properTrial	 left	 1	 9.595
linesB	 71	 27	 23	 470	 42	 217	 absent	 properTrial	 left	 1	 9.595
linesB	 71	 27	 24	 233	 279	 237	 absent	 properTrial	 left	 1	 9.595
linesB	 71	 27	 25	 534	 -22	 123	 absent	 properTrial	 left	 1	 9.595
linesB	 71	 27	 26	 555	 -43	 131	 absent	 properTrial	 left	 1	 9.595
linesB	 71	 27	 27	 303	 209	 667	 absent	 properTrial	 left	 1	 9.595
linesB	 71	 27	 28	 303	 209	 666	 absent	 properTrial	 left	 1	 9.595
linesB	 71	 27	 29	 163	 349	 697	 absent	 properTrial	 left	 1	 9.595
linesB	 71	 27	 30	 558	 -46	 674	 absent	 properTrial	 left	 1	 9.595
linesB	 71	 27	 31	 920	 -408	 678	 absent	 properTrial	 left	 1	 9.595
linesB	 71	 27	 32	 802	 -290	 693	 absent	 properTrial	 left	 1	 9.595
linesB	 71	 28	 1	 529	 -17	 389	 absent	 properTrial	 left	 1	 6.556
linesB	 71	 28	 2	 264	 248	 348	 absent	 properTrial	 left	 1	 6.556
linesB	 71	 28	 3	 277	 235	 234	 absent	 properTrial	 left	 1	 6.556
linesB	 71	 28	 4	 509	 3	 261	 absent	 properTrial	 left	 1	 6.556
linesB	 71	 28	 5	 159	 353	 196	 absent	 properTrial	 left	 1	 6.556
linesB	 71	 28	 6	 334	 178	 681	 absent	 properTrial	 left	 1	 6.556
linesB	 71	 28	 7	 221	 291	 667	 absent	 properTrial	 left	 1	 6.556
linesB	 71	 28	 8	 507	 5	 676	 absent	 properTrial	 left	 1	 6.556
linesB	 71	 28	 9	 798	 -286	 526	 absent	 properTrial	 left	 1	 6.556
linesB	 71	 28	 10	 954	 -442	 477	 absent	 properTrial	 left	 1	 6.556
linesB	 71	 28	 11	 985	 -473	 456	 absent	 properTrial	 left	 1	 6.556
linesB	 71	 28	 12	 556	 -44	 305	 absent	 properTrial	 left	 1	 6.556
linesB	 71	 28	 13	 484	 28	 175	 absent	 properTrial	 left	 1	 6.556
linesB	 71	 28	 14	 516	 -4	 82	 absent	 properTrial	 left	 1	 6.556
linesB	 71	 28	 15	 383	 129	 104	 absent	 properTrial	 left	 1	 6.556
linesB	 71	 28	 16	 863	 -351	 630	 absent	 properTrial	 left	 1	 6.556
linesB	 71	 28	 17	 779	 -267	 690	 absent	 properTrial	 left	 1	 6.556
linesB	 71	 28	 18	 510	 2	 379	 absent	 properTrial	 left	 1	 6.556
linesB	 71	 29	 1	 526	 -14	 380	 absent	 properTrial	 left	 1	 7.637
linesB	 71	 29	 2	 937	 -425	 340	 absent	 properTrial	 left	 1	 7.637
linesB	 71	 29	 3	 426	 86	 274	 absent	 properTrial	 left	 1	 7.637
linesB	 71	 29	 4	 254	 258	 252	 absent	 properTrial	 left	 1	 7.637
linesB	 71	 29	 5	 536	 -24	 101	 absent	 properTrial	 left	 1	 7.637
linesB	 71	 29	 6	 554	 -42	 63	 absent	 properTrial	 left	 1	 7.637
linesB	 71	 29	 7	 963	 -451	 578	 absent	 properTrial	 left	 1	 7.637
linesB	 71	 29	 8	 989	 -477	 723	 absent	 properTrial	 left	 1	 7.637
linesB	 71	 29	 9	 986	 -474	 675	 absent	 properTrial	 left	 1	 7.637
linesB	 71	 29	 10	 991	 -479	 666	 absent	 properTrial	 left	 1	 7.637
linesB	 71	 29	 11	 671	 -159	 364	 absent	 properTrial	 left	 1	 7.637
linesB	 71	 29	 12	 1009	 -497	 382	 absent	 properTrial	 left	 1	 7.637
linesB	 71	 29	 13	 983	 -471	 336	 absent	 properTrial	 left	 1	 7.637
linesB	 71	 29	 14	 1001	 -489	 263	 absent	 properTrial	 left	 1	 7.637
linesB	 71	 29	 15	 997	 -485	 233	 absent	 properTrial	 left	 1	 7.637
linesB	 71	 29	 16	 563	 -51	 209	 absent	 properTrial	 left	 1	 7.637
linesB	 71	 29	 17	 665	 -153	 239	 absent	 properTrial	 left	 1	 7.637
linesB	 71	 29	 18	 721	 -209	 223	 absent	 properTrial	 left	 1	 7.637
linesB	 71	 29	 19	 591	 -79	 141	 absent	 properTrial	 left	 1	 7.637
linesB	 71	 29	 20	 545	 -33	 107	 absent	 properTrial	 left	 1	 7.637
linesB	 71	 29	 21	 984	 -472	 154	 absent	 properTrial	 left	 1	 7.637
linesB	 71	 29	 22	 573	 -61	 633	 absent	 properTrial	 left	 1	 7.637
linesB	 71	 29	 23	 560	 -48	 330	 absent	 properTrial	 left	 1	 7.637
linesB	 71	 30	 1	 526	 14	 380	 absent	 properTrial	 right	 1	 8.473
linesB	 71	 30	 2	 315	 -197	 363	 absent	 properTrial	 right	 1	 8.473
linesB	 71	 30	 3	 331	 -181	 334	 absent	 properTrial	 right	 1	 8.473
linesB	 71	 30	 4	 497	 -15	 409	 absent	 properTrial	 right	 1	 8.473
linesB	 71	 30	 5	 683	 171	 358	 absent	 properTrial	 right	 1	 8.473
linesB	 71	 30	 6	 233	 -279	 148	 absent	 properTrial	 right	 1	 8.473
linesB	 71	 30	 7	 859	 347	 242	 absent	 properTrial	 right	 1	 8.473
linesB	 71	 30	 8	 679	 167	 260	 absent	 properTrial	 right	 1	 8.473
linesB	 71	 30	 9	 765	 253	 684	 absent	 properTrial	 right	 1	 8.473
linesB	 71	 30	 10	 965	 453	 682	 absent	 properTrial	 right	 1	 8.473
linesB	 71	 30	 11	 306	 -206	 637	 absent	 properTrial	 right	 1	 8.473
linesB	 71	 30	 12	 231	 -281	 399	 absent	 properTrial	 right	 1	 8.473
linesB	 71	 30	 13	 362	 -150	 414	 absent	 properTrial	 right	 1	 8.473
linesB	 71	 30	 14	 478	 -34	 655	 absent	 properTrial	 right	 1	 8.473
linesB	 71	 30	 15	 464	 -48	 694	 absent	 properTrial	 right	 1	 8.473
linesB	 71	 30	 16	 143	 -369	 112	 absent	 properTrial	 right	 1	 8.473
linesB	 71	 30	 17	 126	 -386	 73	 absent	 properTrial	 right	 1	 8.473
linesB	 71	 30	 18	 90	 -422	 47	 absent	 properTrial	 right	 1	 8.473
linesB	 71	 30	 19	 419	 -93	 98	 absent	 properTrial	 right	 1	 8.473
linesB	 71	 30	 20	 437	 -75	 68	 absent	 properTrial	 right	 1	 8.473
linesB	 71	 30	 21	 402	 -110	 326	 absent	 properTrial	 right	 1	 8.473
linesB	 71	 30	 22	 315	 -197	 362	 absent	 properTrial	 right	 1	 8.473
linesB	 71	 30	 23	 275	 -237	 344	 absent	 properTrial	 right	 1	 8.473
linesB	 71	 30	 24	 267	 -245	 317	 absent	 properTrial	 right	 1	 8.473
linesB	 71	 30	 25	 218	 -294	 643	 absent	 properTrial	 right	 1	 8.473
linesB	 71	 30	 26	 124	 -388	 672	 absent	 properTrial	 right	 1	 8.473
linesB	 71	 30	 27	 380	 -132	 372	 absent	 properTrial	 right	 1	 8.473
linesB	 71	 31	 1	 522	 10	 394	 right	 properTrial	 right	 1	 9.187
linesB	 71	 31	 2	 331	 -181	 364	 right	 properTrial	 right	 1	 9.187
linesB	 71	 31	 3	 914	 402	 219	 right	 properTrial	 right	 1	 9.187
linesB	 71	 31	 4	 735	 223	 292	 right	 properTrial	 right	 1	 9.187
linesB	 71	 31	 5	 801	 289	 200	 right	 properTrial	 right	 1	 9.187
linesB	 71	 31	 6	 285	 -227	 282	 right	 properTrial	 right	 1	 9.187
linesB	 71	 31	 7	 507	 -5	 272	 right	 properTrial	 right	 1	 9.187
linesB	 71	 31	 8	 437	 -75	 283	 right	 properTrial	 right	 1	 9.187
linesB	 71	 31	 9	 446	 -66	 71	 right	 properTrial	 right	 1	 9.187
linesB	 71	 31	 10	 483	 -29	 283	 right	 properTrial	 right	 1	 9.187
linesB	 71	 31	 11	 464	 -48	 229	 right	 properTrial	 right	 1	 9.187
linesB	 71	 31	 12	 458	 -54	 187	 right	 properTrial	 right	 1	 9.187
linesB	 71	 31	 13	 453	 -59	 139	 right	 properTrial	 right	 1	 9.187
linesB	 71	 31	 14	 458	 -54	 102	 right	 properTrial	 right	 1	 9.187
linesB	 71	 31	 15	 463	 -49	 88	 right	 properTrial	 right	 1	 9.187
linesB	 71	 31	 16	 425	 -87	 74	 right	 properTrial	 right	 1	 9.187
linesB	 71	 31	 17	 327	 -185	 72	 right	 properTrial	 right	 1	 9.187
linesB	 71	 31	 18	 274	 -238	 65	 right	 properTrial	 right	 1	 9.187
linesB	 71	 31	 19	 248	 -264	 214	 right	 properTrial	 right	 1	 9.187
linesB	 71	 31	 20	 307	 -205	 243	 right	 properTrial	 right	 1	 9.187
linesB	 71	 31	 21	 401	 -111	 632	 right	 properTrial	 right	 1	 9.187
linesB	 71	 31	 22	 361	 -151	 603	 right	 properTrial	 right	 1	 9.187
linesB	 71	 31	 23	 256	 -256	 596	 right	 properTrial	 right	 1	 9.187
linesB	 71	 31	 24	 63	 -449	 551	 right	 properTrial	 right	 1	 9.187
linesB	 71	 31	 25	 112	 -400	 540	 right	 properTrial	 right	 1	 9.187
linesB	 71	 31	 26	 388	 -124	 621	 right	 properTrial	 right	 1	 9.187
linesB	 71	 31	 27	 424	 -88	 495	 right	 properTrial	 right	 1	 9.187
linesB	 71	 31	 28	 362	 -150	 414	 right	 properTrial	 right	 1	 9.187
linesB	 71	 31	 29	 433	 -79	 390	 right	 properTrial	 right	 1	 9.187
linesB	 71	 32	 1	 524	 -12	 394	 absent	 properTrial	 left	 1	 6.535
linesB	 71	 32	 2	 293	 219	 397	 absent	 properTrial	 left	 1	 6.535
linesB	 71	 32	 3	 865	 -353	 230	 absent	 properTrial	 left	 1	 6.535
linesB	 71	 32	 4	 959	 -447	 209	 absent	 properTrial	 left	 1	 6.535
linesB	 71	 32	 5	 992	 -480	 164	 absent	 properTrial	 left	 1	 6.535
linesB	 71	 32	 6	 935	 -423	 167	 absent	 properTrial	 left	 1	 6.535
linesB	 71	 32	 7	 947	 -435	 551	 absent	 properTrial	 left	 1	 6.535
linesB	 71	 32	 8	 941	 -429	 464	 absent	 properTrial	 left	 1	 6.535
linesB	 71	 32	 9	 961	 -449	 515	 absent	 properTrial	 left	 1	 6.535
linesB	 71	 32	 10	 908	 -396	 525	 absent	 properTrial	 left	 1	 6.535
linesB	 71	 32	 11	 924	 -412	 625	 absent	 properTrial	 left	 1	 6.535
linesB	 71	 32	 12	 958	 -446	 627	 absent	 properTrial	 left	 1	 6.535
linesB	 71	 32	 13	 678	 -166	 679	 absent	 properTrial	 left	 1	 6.535
linesB	 71	 32	 14	 622	 -110	 245	 absent	 properTrial	 left	 1	 6.535
linesB	 71	 32	 15	 464	 48	 267	 absent	 properTrial	 left	 1	 6.535
linesB	 71	 32	 16	 188	 324	 347	 absent	 properTrial	 left	 1	 6.535
linesB	 71	 32	 17	 249	 263	 618	 absent	 properTrial	 left	 1	 6.535
linesB	 71	 32	 18	 630	 -118	 379	 absent	 properTrial	 left	 1	 6.535
linesB	 71	 32	 19	 487	 25	 382	 absent	 properTrial	 left	 1	 6.535
linesB	 71	 33	 1	 525	 13	 385	 left	 properTrial	 right	 1	 5.273
linesB	 71	 33	 2	 316	 -196	 368	 left	 properTrial	 right	 1	 5.273
linesB	 71	 33	 3	 615	 103	 350	 left	 properTrial	 right	 1	 5.273
linesB	 71	 33	 4	 900	 388	 339	 left	 properTrial	 right	 1	 5.273
linesB	 71	 33	 5	 900	 388	 219	 left	 properTrial	 right	 1	 5.273
linesB	 71	 33	 6	 211	 -301	 340	 left	 properTrial	 right	 1	 5.273
linesB	 71	 33	 7	 258	 -254	 184	 left	 properTrial	 right	 1	 5.273
linesB	 71	 33	 8	 96	 -416	 96	 left	 properTrial	 right	 1	 5.273
linesB	 71	 33	 9	 139	 -373	 134	 left	 properTrial	 right	 1	 5.273
linesB	 71	 33	 10	 286	 -226	 77	 left	 properTrial	 right	 1	 5.273
linesB	 71	 33	 11	 438	 -74	 97	 left	 properTrial	 right	 1	 5.273
linesB	 71	 33	 12	 341	 -171	 653	 left	 properTrial	 right	 1	 5.273
linesB	 71	 33	 13	 372	 -140	 695	 left	 properTrial	 right	 1	 5.273
linesB	 71	 33	 14	 378	 -134	 693	 left	 properTrial	 right	 1	 5.273
linesB	 71	 34	 1	 523	 11	 394	 right	 properTrial	 right	 1	 1.138
linesB	 71	 34	 2	 711	 199	 117	 right	 properTrial	 right	 1	 1.138
linesB	 71	 35	 1	 516	 -4	 389	 absent	 properTrial	 left	 1	 9.302
linesB	 71	 35	 2	 318	 194	 483	 absent	 properTrial	 left	 1	 9.302
linesB	 71	 35	 3	 340	 172	 674	 absent	 properTrial	 left	 1	 9.302
linesB	 71	 35	 4	 676	 -164	 632	 absent	 properTrial	 left	 1	 9.302
linesB	 71	 35	 5	 891	 -379	 664	 absent	 properTrial	 left	 1	 9.302
linesB	 71	 35	 6	 924	 -412	 705	 absent	 properTrial	 left	 1	 9.302
linesB	 71	 35	 7	 992	 -480	 669	 absent	 properTrial	 left	 1	 9.302
linesB	 71	 35	 8	 809	 -297	 615	 absent	 properTrial	 left	 1	 9.302
linesB	 71	 35	 9	 837	 -325	 656	 absent	 properTrial	 left	 1	 9.302
linesB	 71	 35	 10	 844	 -332	 337	 absent	 properTrial	 left	 1	 9.302
linesB	 71	 35	 11	 785	 -273	 264	 absent	 properTrial	 left	 1	 9.302
linesB	 71	 35	 12	 850	 -338	 236	 absent	 properTrial	 left	 1	 9.302
linesB	 71	 35	 13	 900	 -388	 164	 absent	 properTrial	 left	 1	 9.302
linesB	 71	 35	 14	 835	 -323	 159	 absent	 properTrial	 left	 1	 9.302
linesB	 71	 35	 15	 845	 -333	 123	 absent	 properTrial	 left	 1	 9.302
linesB	 71	 35	 16	 952	 -440	 167	 absent	 properTrial	 left	 1	 9.302
linesB	 71	 35	 17	 837	 -325	 165	 absent	 properTrial	 left	 1	 9.302
linesB	 71	 35	 18	 578	 -66	 187	 absent	 properTrial	 left	 1	 9.302
linesB	 71	 35	 19	 601	 -89	 153	 absent	 properTrial	 left	 1	 9.302
linesB	 71	 35	 20	 645	 -133	 153	 absent	 properTrial	 left	 1	 9.302
linesB	 71	 35	 21	 685	 -173	 172	 absent	 properTrial	 left	 1	 9.302
linesB	 71	 35	 22	 683	 -171	 165	 absent	 properTrial	 left	 1	 9.302
linesB	 71	 35	 23	 670	 -158	 112	 absent	 properTrial	 left	 1	 9.302
linesB	 71	 35	 24	 780	 -268	 604	 absent	 properTrial	 left	 1	 9.302
linesB	 71	 35	 25	 740	 -228	 589	 absent	 properTrial	 left	 1	 9.302
linesB	 71	 35	 26	 738	 -226	 629	 absent	 properTrial	 left	 1	 9.302
linesB	 71	 35	 27	 565	 -53	 640	 absent	 properTrial	 left	 1	 9.302
linesB	 71	 35	 28	 436	 76	 523	 absent	 properTrial	 left	 1	 9.302
linesB	 71	 35	 29	 431	 81	 446	 absent	 properTrial	 left	 1	 9.302
linesB	 71	 35	 30	 549	 -37	 413	 absent	 properTrial	 left	 1	 9.302
linesB	 71	 36	 1	 532	 -20	 386	 absent	 properTrial	 left	 1	 10.139
linesB	 71	 36	 2	 387	 125	 383	 absent	 properTrial	 left	 1	 10.139
linesB	 71	 36	 3	 866	 -354	 270	 absent	 properTrial	 left	 1	 10.139
linesB	 71	 36	 4	 961	 -449	 241	 absent	 properTrial	 left	 1	 10.139
linesB	 71	 36	 5	 1008	 -496	 195	 absent	 properTrial	 left	 1	 10.139
linesB	 71	 36	 6	 974	 -462	 147	 absent	 properTrial	 left	 1	 10.139
linesB	 71	 36	 7	 1001	 -489	 85	 absent	 properTrial	 left	 1	 10.139
linesB	 71	 36	 8	 567	 -55	 317	 absent	 properTrial	 left	 1	 10.139
linesB	 71	 36	 9	 567	 -55	 204	 absent	 properTrial	 left	 1	 10.139
linesB	 71	 36	 10	 593	 -81	 150	 absent	 properTrial	 left	 1	 10.139
linesB	 71	 36	 11	 578	 -66	 125	 absent	 properTrial	 left	 1	 10.139
linesB	 71	 36	 12	 617	 -105	 527	 absent	 properTrial	 left	 1	 10.139
linesB	 71	 36	 13	 564	 -52	 453	 absent	 properTrial	 left	 1	 10.139
linesB	 71	 36	 14	 626	 -114	 709	 absent	 properTrial	 left	 1	 10.139
linesB	 71	 36	 15	 638	 -126	 670	 absent	 properTrial	 left	 1	 10.139
linesB	 71	 36	 16	 858	 -346	 636	 absent	 properTrial	 left	 1	 10.139
linesB	 71	 36	 17	 948	 -436	 626	 absent	 properTrial	 left	 1	 10.139
linesB	 71	 36	 18	 912	 -400	 582	 absent	 properTrial	 left	 1	 10.139
linesB	 71	 36	 19	 944	 -432	 523	 absent	 properTrial	 left	 1	 10.139
linesB	 71	 36	 20	 989	 -477	 528	 absent	 properTrial	 left	 1	 10.139
linesB	 71	 36	 21	 928	 -416	 461	 absent	 properTrial	 left	 1	 10.139
linesB	 71	 36	 22	 941	 -429	 440	 absent	 properTrial	 left	 1	 10.139
linesB	 71	 36	 23	 958	 -446	 409	 absent	 properTrial	 left	 1	 10.139
linesB	 71	 36	 24	 995	 -483	 402	 absent	 properTrial	 left	 1	 10.139
linesB	 71	 36	 25	 867	 -355	 404	 absent	 properTrial	 left	 1	 10.139
linesB	 71	 36	 26	 790	 -278	 376	 absent	 properTrial	 left	 1	 10.139
linesB	 71	 36	 27	 714	 -202	 385	 absent	 properTrial	 left	 1	 10.139
linesB	 71	 36	 28	 622	 -110	 405	 absent	 properTrial	 left	 1	 10.139
linesB	 71	 36	 29	 693	 -181	 720	 absent	 properTrial	 left	 1	 10.139
linesB	 71	 36	 30	 807	 -295	 716	 absent	 properTrial	 left	 1	 10.139
linesB	 71	 36	 31	 888	 -376	 714	 absent	 properTrial	 left	 1	 10.139
linesB	 71	 36	 32	 911	 -399	 658	 absent	 properTrial	 left	 1	 10.139
linesB	 71	 36	 33	 542	 -30	 663	 absent	 properTrial	 left	 1	 10.139
linesB	 71	 36	 34	 424	 88	 621	 absent	 properTrial	 left	 1	 10.139
linesB	 71	 36	 35	 551	 -39	 375	 absent	 properTrial	 left	 1	 10.139
linesB	 71	 37	 1	 530	 -18	 388	 absent	 properTrial	 left	 1	 7.006
linesB	 71	 37	 2	 279	 233	 402	 absent	 properTrial	 left	 1	 7.006
linesB	 71	 37	 3	 400	 112	 120	 absent	 properTrial	 left	 1	 7.006
linesB	 71	 37	 4	 528	 -16	 91	 absent	 properTrial	 left	 1	 7.006
linesB	 71	 37	 5	 579	 -67	 671	 absent	 properTrial	 left	 1	 7.006
linesB	 71	 37	 6	 906	 -394	 239	 absent	 properTrial	 left	 1	 7.006
linesB	 71	 37	 7	 946	 -434	 180	 absent	 properTrial	 left	 1	 7.006
linesB	 71	 37	 8	 822	 -310	 143	 absent	 properTrial	 left	 1	 7.006
linesB	 71	 37	 9	 931	 -419	 464	 absent	 properTrial	 left	 1	 7.006
linesB	 71	 37	 10	 823	 -311	 535	 absent	 properTrial	 left	 1	 7.006
linesB	 71	 37	 11	 832	 -320	 715	 absent	 properTrial	 left	 1	 7.006
linesB	 71	 37	 12	 825	 -313	 722	 absent	 properTrial	 left	 1	 7.006
linesB	 71	 37	 13	 875	 -363	 706	 absent	 properTrial	 left	 1	 7.006
linesB	 71	 37	 14	 612	 -100	 464	 absent	 properTrial	 left	 1	 7.006
linesB	 71	 37	 15	 884	 -372	 685	 absent	 properTrial	 left	 1	 7.006
linesB	 71	 37	 16	 952	 -440	 684	 absent	 properTrial	 left	 1	 7.006
linesB	 71	 37	 17	 994	 -482	 687	 absent	 properTrial	 left	 1	 7.006
linesB	 71	 37	 18	 779	 -267	 622	 absent	 properTrial	 left	 1	 7.006
linesB	 71	 37	 19	 578	 -66	 589	 absent	 properTrial	 left	 1	 7.006
linesB	 71	 37	 20	 599	 -87	 685	 absent	 properTrial	 left	 1	 7.006
linesB	 71	 38	 1	 533	 21	 377	 absent	 properTrial	 right	 0	 5.543
linesB	 71	 38	 2	 167	 -345	 342	 absent	 properTrial	 right	 0	 5.543
linesB	 71	 38	 3	 443	 -69	 159	 absent	 properTrial	 right	 0	 5.543
linesB	 71	 38	 4	 507	 -5	 152	 absent	 properTrial	 right	 0	 5.543
linesB	 71	 38	 5	 440	 -72	 95	 absent	 properTrial	 right	 0	 5.543
linesB	 71	 38	 6	 258	 -254	 120	 absent	 properTrial	 right	 0	 5.543
linesB	 71	 38	 7	 287	 -225	 714	 absent	 properTrial	 right	 0	 5.543
linesB	 71	 38	 8	 284	 -228	 653	 absent	 properTrial	 right	 0	 5.543
linesB	 71	 38	 9	 474	 -38	 700	 absent	 properTrial	 right	 0	 5.543
linesB	 71	 38	 10	 331	 -181	 674	 absent	 properTrial	 right	 0	 5.543
linesB	 71	 38	 11	 462	 -50	 691	 absent	 properTrial	 right	 0	 5.543
linesB	 71	 38	 12	 463	 -49	 653	 absent	 properTrial	 right	 0	 5.543
linesB	 71	 38	 13	 101	 -411	 707	 absent	 properTrial	 right	 0	 5.543
linesB	 71	 38	 14	 111	 -401	 631	 absent	 properTrial	 right	 0	 5.543
linesB	 71	 38	 15	 135	 -377	 583	 absent	 properTrial	 right	 0	 5.543
linesB	 71	 38	 16	 120	 -392	 565	 absent	 properTrial	 right	 0	 5.543
linesB	 71	 38	 17	 115	 -397	 562	 absent	 properTrial	 right	 0	 5.543
linesB	 71	 39	 1	 524	 12	 394	 left	 properTrial	 right	 1	 8.175
linesB	 71	 39	 2	 248	 -264	 488	 left	 properTrial	 right	 1	 8.175
linesB	 71	 39	 3	 457	 -55	 704	 left	 properTrial	 right	 1	 8.175
linesB	 71	 39	 4	 494	 -18	 679	 left	 properTrial	 right	 1	 8.175
linesB	 71	 39	 5	 397	 -115	 281	 left	 properTrial	 right	 1	 8.175
linesB	 71	 39	 6	 519	 7	 636	 left	 properTrial	 right	 1	 8.175
linesB	 71	 39	 7	 502	 -10	 605	 left	 properTrial	 right	 1	 8.175
linesB	 71	 39	 8	 286	 -226	 196	 left	 properTrial	 right	 1	 8.175
linesB	 71	 39	 9	 510	 -2	 218	 left	 properTrial	 right	 1	 8.175
linesB	 71	 39	 10	 507	 -5	 192	 left	 properTrial	 right	 1	 8.175
linesB	 71	 39	 11	 505	 -7	 125	 left	 properTrial	 right	 1	 8.175
linesB	 71	 39	 12	 495	 -17	 71	 left	 properTrial	 right	 1	 8.175
linesB	 71	 39	 13	 448	 -64	 53	 left	 properTrial	 right	 1	 8.175
linesB	 71	 39	 14	 127	 -385	 717	 left	 properTrial	 right	 1	 8.175
linesB	 71	 39	 15	 175	 -337	 700	 left	 properTrial	 right	 1	 8.175
linesB	 71	 39	 16	 301	 -211	 651	 left	 properTrial	 right	 1	 8.175
linesB	 71	 39	 17	 320	 -192	 636	 left	 properTrial	 right	 1	 8.175
linesB	 71	 39	 18	 374	 -138	 619	 left	 properTrial	 right	 1	 8.175
linesB	 71	 39	 19	 389	 -123	 559	 left	 properTrial	 right	 1	 8.175
linesB	 71	 39	 20	 373	 -139	 505	 left	 properTrial	 right	 1	 8.175
linesB	 71	 39	 21	 194	 -318	 477	 left	 properTrial	 right	 1	 8.175
linesB	 71	 39	 22	 162	 -350	 467	 left	 properTrial	 right	 1	 8.175
linesB	 71	 39	 23	 242	 -270	 456	 left	 properTrial	 right	 1	 8.175
linesB	 71	 39	 24	 292	 -220	 414	 left	 properTrial	 right	 1	 8.175
linesB	 71	 39	 25	 336	 -176	 378	 left	 properTrial	 right	 1	 8.175
linesB	 71	 39	 26	 328	 -184	 364	 left	 properTrial	 right	 1	 8.175
linesB	 71	 39	 27	 394	 -118	 319	 left	 properTrial	 right	 1	 8.175
linesB	 71	 39	 28	 301	 -211	 363	 left	 properTrial	 right	 1	 8.175
linesB	 71	 39	 29	 338	 -174	 361	 left	 properTrial	 right	 1	 8.175
linesB	 71	 39	 30	 348	 -164	 358	 left	 properTrial	 right	 1	 8.175
linesB	 71	 40	 1	 527	 15	 390	 left	 properTrial	 right	 1	 1.621
linesB	 71	 40	 2	 408	 -104	 387	 left	 properTrial	 right	 1	 1.621
linesB	 71	 40	 3	 420	 -92	 376	 left	 properTrial	 right	 1	 1.621
linesB	 71	 40	 4	 431	 -81	 367	 left	 properTrial	 right	 1	 1.621
linesB	 71	 41	 1	 530	 -18	 377	 absent	 properTrial	 left	 1	 9.887
linesB	 71	 41	 2	 790	 -278	 307	 absent	 properTrial	 left	 1	 9.887
linesB	 71	 41	 3	 420	 92	 235	 absent	 properTrial	 left	 1	 9.887
linesB	 71	 41	 4	 206	 306	 226	 absent	 properTrial	 left	 1	 9.887
linesB	 71	 41	 5	 183	 329	 180	 absent	 properTrial	 left	 1	 9.887
linesB	 71	 41	 6	 955	 -443	 204	 absent	 properTrial	 left	 1	 9.887
linesB	 71	 41	 7	 924	 -412	 148	 absent	 properTrial	 left	 1	 9.887
linesB	 71	 41	 8	 1057	 -545	 91	 absent	 properTrial	 left	 1	 9.887
linesB	 71	 41	 9	 1025	 -513	 59	 absent	 properTrial	 left	 1	 9.887
linesB	 71	 41	 10	 800	 -288	 639	 absent	 properTrial	 left	 1	 9.887
linesB	 71	 41	 11	 940	 -428	 647	 absent	 properTrial	 left	 1	 9.887
linesB	 71	 41	 12	 871	 -359	 593	 absent	 properTrial	 left	 1	 9.887
linesB	 71	 41	 13	 569	 -57	 611	 absent	 properTrial	 left	 1	 9.887
linesB	 71	 41	 14	 570	 -58	 562	 absent	 properTrial	 left	 1	 9.887
linesB	 71	 41	 15	 636	 -124	 507	 absent	 properTrial	 left	 1	 9.887
linesB	 71	 41	 16	 624	 -112	 495	 absent	 properTrial	 left	 1	 9.887
linesB	 71	 41	 17	 536	 -24	 401	 absent	 properTrial	 left	 1	 9.887
linesB	 71	 41	 18	 446	 66	 418	 absent	 properTrial	 left	 1	 9.887
linesB	 71	 41	 19	 276	 236	 543	 absent	 properTrial	 left	 1	 9.887
linesB	 71	 41	 20	 989	 -477	 384	 absent	 properTrial	 left	 1	 9.887
linesB	 71	 41	 21	 944	 -432	 384	 absent	 properTrial	 left	 1	 9.887
linesB	 71	 41	 22	 951	 -439	 320	 absent	 properTrial	 left	 1	 9.887
linesB	 71	 41	 23	 525	 -13	 195	 absent	 properTrial	 left	 1	 9.887
linesB	 71	 41	 24	 598	 -86	 149	 absent	 properTrial	 left	 1	 9.887
linesB	 71	 41	 25	 585	 -73	 103	 absent	 properTrial	 left	 1	 9.887
linesB	 71	 41	 26	 548	 -36	 94	 absent	 properTrial	 left	 1	 9.887
linesB	 71	 41	 27	 718	 -206	 123	 absent	 properTrial	 left	 1	 9.887
linesB	 71	 41	 28	 789	 -277	 73	 absent	 properTrial	 left	 1	 9.887
linesB	 71	 41	 29	 622	 -110	 214	 absent	 properTrial	 left	 1	 9.887
linesB	 71	 42	 1	 519	 -7	 375	 absent	 properTrial	 left	 0	 8.179
linesB	 71	 42	 2	 883	 -371	 343	 absent	 properTrial	 left	 0	 8.179
linesB	 71	 42	 3	 916	 -404	 206	 absent	 properTrial	 left	 0	 8.179
linesB	 71	 42	 4	 406	 106	 218	 absent	 properTrial	 left	 0	 8.179
linesB	 71	 42	 5	 290	 222	 223	 absent	 properTrial	 left	 0	 8.179
linesB	 71	 42	 6	 992	 -480	 345	 absent	 properTrial	 left	 0	 8.179
linesB	 71	 42	 7	 1026	 -514	 83	 absent	 properTrial	 left	 0	 8.179
linesB	 71	 42	 8	 1036	 -524	 -9	 absent	 properTrial	 left	 0	 8.179
linesB	 71	 42	 9	 1007	 -495	 -54	 absent	 properTrial	 left	 0	 8.179
linesB	 71	 42	 10	 989	 -477	 -85	 absent	 properTrial	 left	 0	 8.179
linesB	 71	 42	 11	 608	 -96	 30	 absent	 properTrial	 left	 0	 8.179
linesB	 71	 42	 12	 725	 -213	 50	 absent	 properTrial	 left	 0	 8.179
linesB	 71	 42	 13	 837	 -325	 64	 absent	 properTrial	 left	 0	 8.179
linesB	 71	 42	 14	 848	 -336	 56	 absent	 properTrial	 left	 0	 8.179
linesB	 71	 42	 15	 883	 -371	 129	 absent	 properTrial	 left	 0	 8.179
linesB	 71	 42	 16	 866	 -354	 697	 absent	 properTrial	 left	 0	 8.179
linesB	 71	 42	 17	 808	 -296	 663	 absent	 properTrial	 left	 0	 8.179
linesB	 71	 42	 18	 908	 -396	 647	 absent	 properTrial	 left	 0	 8.179
linesB	 71	 42	 19	 845	 -333	 618	 absent	 properTrial	 left	 0	 8.179
linesB	 71	 42	 20	 928	 -416	 615	 absent	 properTrial	 left	 0	 8.179
linesB	 71	 42	 21	 921	 -409	 642	 absent	 properTrial	 left	 0	 8.179
linesB	 71	 43	 1	 520	 8	 397	 absent	 properTrial	 right	 0	 3.609
linesB	 71	 43	 2	 170	 -342	 365	 absent	 properTrial	 right	 0	 3.609
linesB	 71	 43	 3	 240	 -272	 328	 absent	 properTrial	 right	 0	 3.609
linesB	 71	 43	 4	 415	 -97	 342	 absent	 properTrial	 right	 0	 3.609
linesB	 71	 43	 5	 366	 -146	 297	 absent	 properTrial	 right	 0	 3.609
linesB	 71	 43	 6	 376	 -136	 377	 absent	 properTrial	 right	 0	 3.609
linesB	 71	 43	 7	 394	 -118	 319	 absent	 properTrial	 right	 0	 3.609
linesB	 71	 43	 8	 382	 -130	 374	 absent	 properTrial	 right	 0	 3.609
linesB	 71	 43	 9	 456	 -56	 241	 absent	 properTrial	 right	 0	 3.609
linesB	 71	 43	 10	 418	 -94	 365	 absent	 properTrial	 right	 0	 3.609
linesB	 71	 43	 11	 425	 -87	 362	 absent	 properTrial	 right	 0	 3.609
linesB	 71	 44	 1	 521	 9	 388	 absent	 properTrial	 right	 1	 12.209
linesB	 71	 44	 2	 369	 -143	 394	 absent	 properTrial	 right	 1	 12.209
linesB	 71	 44	 3	 486	 -26	 365	 absent	 properTrial	 right	 1	 12.209
linesB	 71	 44	 4	 461	 -51	 358	 absent	 properTrial	 right	 1	 12.209
linesB	 71	 44	 5	 468	 -44	 312	 absent	 properTrial	 right	 1	 12.209
linesB	 71	 44	 6	 498	 -14	 315	 absent	 properTrial	 right	 1	 12.209
linesB	 71	 44	 7	 477	 -35	 279	 absent	 properTrial	 right	 1	 12.209
linesB	 71	 44	 8	 507	 -5	 226	 absent	 properTrial	 right	 1	 12.209
linesB	 71	 44	 9	 509	 -3	 180	 absent	 properTrial	 right	 1	 12.209
linesB	 71	 44	 10	 499	 -13	 110	 absent	 properTrial	 right	 1	 12.209
linesB	 71	 44	 11	 497	 -15	 80	 absent	 properTrial	 right	 1	 12.209
linesB	 71	 44	 12	 467	 -45	 45	 absent	 properTrial	 right	 1	 12.209
linesB	 71	 44	 13	 402	 -110	 680	 absent	 properTrial	 right	 1	 12.209
linesB	 71	 44	 14	 468	 -44	 705	 absent	 properTrial	 right	 1	 12.209
linesB	 71	 44	 15	 450	 -62	 678	 absent	 properTrial	 right	 1	 12.209
linesB	 71	 44	 16	 449	 -63	 627	 absent	 properTrial	 right	 1	 12.209
linesB	 71	 44	 17	 152	 -360	 663	 absent	 properTrial	 right	 1	 12.209
linesB	 71	 44	 18	 832	 320	 377	 absent	 properTrial	 right	 1	 12.209
linesB	 71	 44	 19	 884	 372	 241	 absent	 properTrial	 right	 1	 12.209
linesB	 71	 44	 20	 798	 286	 164	 absent	 properTrial	 right	 1	 12.209
linesB	 71	 44	 21	 976	 464	 135	 absent	 properTrial	 right	 1	 12.209
linesB	 71	 44	 22	 147	 -365	 316	 absent	 properTrial	 right	 1	 12.209
linesB	 71	 44	 23	 144	 -368	 239	 absent	 properTrial	 right	 1	 12.209
linesB	 71	 44	 24	 152	 -360	 189	 absent	 properTrial	 right	 1	 12.209
linesB	 71	 44	 25	 171	 -341	 151	 absent	 properTrial	 right	 1	 12.209
linesB	 71	 44	 26	 169	 -343	 119	 absent	 properTrial	 right	 1	 12.209
linesB	 71	 44	 27	 82	 -430	 113	 absent	 properTrial	 right	 1	 12.209
linesB	 71	 44	 28	 190	 -322	 118	 absent	 properTrial	 right	 1	 12.209
linesB	 71	 44	 29	 210	 -302	 82	 absent	 properTrial	 right	 1	 12.209
linesB	 71	 44	 30	 244	 -268	 84	 absent	 properTrial	 right	 1	 12.209
linesB	 71	 44	 31	 290	 -222	 89	 absent	 properTrial	 right	 1	 12.209
linesB	 71	 44	 32	 319	 -193	 89	 absent	 properTrial	 right	 1	 12.209
linesB	 71	 44	 33	 206	 -306	 577	 absent	 properTrial	 right	 1	 12.209
linesB	 71	 44	 34	 205	 -307	 586	 absent	 properTrial	 right	 1	 12.209
linesB	 71	 44	 35	 107	 -405	 663	 absent	 properTrial	 right	 1	 12.209
linesB	 71	 44	 36	 175	 -337	 629	 absent	 properTrial	 right	 1	 12.209
linesB	 71	 44	 37	 423	 -89	 369	 absent	 properTrial	 right	 1	 12.209
linesB	 71	 45	 1	 527	 -15	 388	 left	 properTrial	 left	 1	 3.764
linesB	 71	 45	 2	 396	 116	 371	 left	 properTrial	 left	 1	 3.764
linesB	 71	 45	 3	 828	 -316	 280	 left	 properTrial	 left	 1	 3.764
linesB	 71	 45	 4	 887	 -375	 273	 left	 properTrial	 left	 1	 3.764
linesB	 71	 45	 5	 984	 -472	 212	 left	 properTrial	 left	 1	 3.764
linesB	 71	 45	 6	 977	 -465	 254	 left	 properTrial	 left	 1	 3.764
linesB	 71	 45	 7	 929	 -417	 209	 left	 properTrial	 left	 1	 3.764
linesB	 71	 45	 8	 1049	 -537	 29	 left	 properTrial	 left	 1	 3.764
linesB	 71	 45	 9	 1124	 -612	 -31	 left	 properTrial	 left	 1	 3.764
linesB	 71	 45	 10	 453	 59	 149	 left	 properTrial	 left	 1	 3.764
linesB	 71	 45	 11	 471	 41	 153	 left	 properTrial	 left	 1	 3.764
linesB	 71	 46	 1	 524	 12	 380	 right	 properTrial	 right	 1	 1.789
linesB	 71	 46	 2	 261	 -251	 386	 right	 properTrial	 right	 1	 1.789
linesB	 71	 46	 3	 289	 -223	 370	 right	 properTrial	 right	 1	 1.789
linesB	 71	 46	 4	 382	 -130	 404	 right	 properTrial	 right	 1	 1.789
linesB	 71	 46	 5	 696	 184	 291	 right	 properTrial	 right	 1	 1.789
linesB	 71	 46	 6	 688	 176	 289	 right	 properTrial	 right	 1	 1.789
linesB	 71	 47	 1	 528	 -16	 375	 right	 properTrial	 left	 0	 10.363
linesB	 71	 47	 2	 375	 137	 365	 right	 properTrial	 left	 0	 10.363
linesB	 71	 47	 3	 365	 147	 314	 right	 properTrial	 left	 0	 10.363
linesB	 71	 47	 4	 872	 -360	 237	 right	 properTrial	 left	 0	 10.363
linesB	 71	 47	 5	 961	 -449	 237	 right	 properTrial	 left	 0	 10.363
linesB	 71	 47	 6	 933	 -421	 217	 right	 properTrial	 left	 0	 10.363
linesB	 71	 47	 7	 532	 -20	 233	 right	 properTrial	 left	 0	 10.363
linesB	 71	 47	 8	 264	 248	 453	 right	 properTrial	 left	 0	 10.363
linesB	 71	 47	 9	 348	 164	 520	 right	 properTrial	 left	 0	 10.363
linesB	 71	 47	 10	 225	 287	 342	 right	 properTrial	 left	 0	 10.363
linesB	 71	 47	 11	 514	 -2	 669	 right	 properTrial	 left	 0	 10.363
linesB	 71	 47	 12	 557	 -45	 692	 right	 properTrial	 left	 0	 10.363
linesB	 71	 47	 13	 880	 -368	 684	 right	 properTrial	 left	 0	 10.363
linesB	 71	 47	 14	 947	 -435	 667	 right	 properTrial	 left	 0	 10.363
linesB	 71	 47	 15	 965	 -453	 634	 right	 properTrial	 left	 0	 10.363
linesB	 71	 47	 16	 971	 -459	 600	 right	 properTrial	 left	 0	 10.363
linesB	 71	 47	 17	 952	 -440	 559	 right	 properTrial	 left	 0	 10.363
linesB	 71	 47	 18	 974	 -462	 564	 right	 properTrial	 left	 0	 10.363
linesB	 71	 47	 19	 949	 -437	 527	 right	 properTrial	 left	 0	 10.363
linesB	 71	 47	 20	 943	 -431	 560	 right	 properTrial	 left	 0	 10.363
linesB	 71	 47	 21	 973	 -461	 481	 right	 properTrial	 left	 0	 10.363
linesB	 71	 47	 22	 941	 -429	 425	 right	 properTrial	 left	 0	 10.363
linesB	 71	 47	 23	 959	 -447	 398	 right	 properTrial	 left	 0	 10.363
linesB	 71	 47	 24	 615	 -103	 441	 right	 properTrial	 left	 0	 10.363
linesB	 71	 47	 25	 591	 -79	 418	 right	 properTrial	 left	 0	 10.363
linesB	 71	 47	 26	 594	 -82	 449	 right	 properTrial	 left	 0	 10.363
linesB	 71	 47	 27	 599	 -87	 406	 right	 properTrial	 left	 0	 10.363
linesB	 71	 47	 28	 600	 -88	 360	 right	 properTrial	 left	 0	 10.363
linesB	 71	 47	 29	 714	 -202	 365	 right	 properTrial	 left	 0	 10.363
linesB	 71	 47	 30	 779	 -267	 369	 right	 properTrial	 left	 0	 10.363
linesB	 71	 47	 31	 741	 -229	 315	 right	 properTrial	 left	 0	 10.363
linesB	 71	 47	 32	 687	 -175	 322	 right	 properTrial	 left	 0	 10.363
linesB	 71	 47	 33	 743	 -231	 311	 right	 properTrial	 left	 0	 10.363
linesB	 71	 47	 34	 825	 -313	 244	 right	 properTrial	 left	 0	 10.363
linesB	 71	 47	 35	 717	 -205	 314	 right	 properTrial	 left	 0	 10.363
linesB	 71	 47	 36	 682	 -170	 116	 right	 properTrial	 left	 0	 10.363
linesB	 71	 48	 1	 512	 0	 386	 absent	 properTrial	 right	 1	 12.921
linesB	 71	 48	 2	 363	 -149	 357	 absent	 properTrial	 right	 1	 12.921
linesB	 71	 48	 3	 330	 -182	 364	 absent	 properTrial	 right	 1	 12.921
linesB	 71	 48	 4	 895	 383	 296	 absent	 properTrial	 right	 1	 12.921
linesB	 71	 48	 5	 660	 148	 275	 absent	 properTrial	 right	 1	 12.921
linesB	 71	 48	 6	 687	 175	 278	 absent	 properTrial	 right	 1	 12.921
linesB	 71	 48	 7	 689	 177	 239	 absent	 properTrial	 right	 1	 12.921
linesB	 71	 48	 8	 257	 -255	 445	 absent	 properTrial	 right	 1	 12.921
linesB	 71	 48	 9	 231	 -281	 398	 absent	 properTrial	 right	 1	 12.921
linesB	 71	 48	 10	 224	 -288	 237	 absent	 properTrial	 right	 1	 12.921
linesB	 71	 48	 11	 268	 -244	 222	 absent	 properTrial	 right	 1	 12.921
linesB	 71	 48	 12	 487	 -25	 86	 absent	 properTrial	 right	 1	 12.921
linesB	 71	 48	 13	 412	 -100	 80	 absent	 properTrial	 right	 1	 12.921
linesB	 71	 48	 14	 359	 -153	 39	 absent	 properTrial	 right	 1	 12.921
linesB	 71	 48	 15	 452	 -60	 40	 absent	 properTrial	 right	 1	 12.921
linesB	 71	 48	 16	 419	 -93	 34	 absent	 properTrial	 right	 1	 12.921
linesB	 71	 48	 17	 353	 -159	 34	 absent	 properTrial	 right	 1	 12.921
linesB	 71	 48	 18	 32	 -480	 36	 absent	 properTrial	 right	 1	 12.921
linesB	 71	 48	 19	 95	 -417	 551	 absent	 properTrial	 right	 1	 12.921
linesB	 71	 48	 20	 73	 -439	 494	 absent	 properTrial	 right	 1	 12.921
linesB	 71	 48	 21	 133	 -379	 501	 absent	 properTrial	 right	 1	 12.921
linesB	 71	 48	 22	 164	 -348	 457	 absent	 properTrial	 right	 1	 12.921
linesB	 71	 48	 23	 151	 -361	 464	 absent	 properTrial	 right	 1	 12.921
linesB	 71	 48	 24	 201	 -311	 470	 absent	 properTrial	 right	 1	 12.921
linesB	 71	 48	 25	 191	 -321	 447	 absent	 properTrial	 right	 1	 12.921
linesB	 71	 48	 26	 144	 -368	 432	 absent	 properTrial	 right	 1	 12.921
linesB	 71	 48	 27	 200	 -312	 393	 absent	 properTrial	 right	 1	 12.921
linesB	 71	 48	 28	 294	 -218	 702	 absent	 properTrial	 right	 1	 12.921
linesB	 71	 48	 29	 332	 -180	 684	 absent	 properTrial	 right	 1	 12.921
linesB	 71	 48	 30	 394	 -118	 676	 absent	 properTrial	 right	 1	 12.921
linesB	 71	 48	 31	 439	 -73	 668	 absent	 properTrial	 right	 1	 12.921
linesB	 71	 48	 32	 463	 -49	 699	 absent	 properTrial	 right	 1	 12.921
linesB	 71	 48	 33	 134	 -378	 657	 absent	 properTrial	 right	 1	 12.921
linesB	 71	 48	 34	 481	 -31	 406	 absent	 properTrial	 right	 1	 12.921
linesB	 71	 48	 35	 518	 6	 444	 absent	 properTrial	 right	 1	 12.921
linesB	 71	 48	 36	 444	 -68	 449	 absent	 properTrial	 right	 1	 12.921
linesB	 71	 48	 37	 460	 -52	 381	 absent	 properTrial	 right	 1	 12.921
linesB	 71	 48	 38	 473	 -39	 353	 absent	 properTrial	 right	 1	 12.921
linesB	 71	 48	 39	 498	 -14	 297	 absent	 properTrial	 right	 1	 12.921
linesB	 71	 48	 40	 512	 0	 263	 absent	 properTrial	 right	 1	 12.921
linesB	 71	 48	 41	 79	 -433	 174	 absent	 properTrial	 right	 1	 12.921
linesB	 71	 49	 1	 533	 21	 384	 right	 properTrial	 right	 1	 0.824
linesB	 71	 49	 2	 891	 379	 383	 right	 properTrial	 right	 1	 0.824
linesB	 71	 49	 3	 907	 395	 382	 right	 properTrial	 right	 1	 0.824
linesB	 71	 50	 1	 542	 -30	 384	 absent	 properTrial	 left	 1	 11.731
linesB	 71	 50	 2	 319	 193	 386	 absent	 properTrial	 left	 1	 11.731
linesB	 71	 50	 3	 671	 -159	 376	 absent	 properTrial	 left	 1	 11.731
linesB	 71	 50	 4	 941	 -429	 364	 absent	 properTrial	 left	 1	 11.731
linesB	 71	 50	 5	 1001	 -489	 360	 absent	 properTrial	 left	 1	 11.731
linesB	 71	 50	 6	 609	 -97	 368	 absent	 properTrial	 left	 1	 11.731
linesB	 71	 50	 7	 554	 -42	 376	 absent	 properTrial	 left	 1	 11.731
linesB	 71	 50	 8	 546	 -34	 186	 absent	 properTrial	 left	 1	 11.731
linesB	 71	 50	 9	 565	 -53	 110	 absent	 properTrial	 left	 1	 11.731
linesB	 71	 50	 10	 122	 390	 427	 absent	 properTrial	 left	 1	 11.731
linesB	 71	 50	 11	 899	 -387	 317	 absent	 properTrial	 left	 1	 11.731
linesB	 71	 50	 12	 1002	 -490	 239	 absent	 properTrial	 left	 1	 11.731
linesB	 71	 50	 13	 928	 -416	 656	 absent	 properTrial	 left	 1	 11.731
linesB	 71	 50	 14	 887	 -375	 647	 absent	 properTrial	 left	 1	 11.731
linesB	 71	 50	 15	 653	 -141	 646	 absent	 properTrial	 left	 1	 11.731
linesB	 71	 50	 16	 710	 -198	 616	 absent	 properTrial	 left	 1	 11.731
linesB	 71	 50	 17	 735	 -223	 614	 absent	 properTrial	 left	 1	 11.731
linesB	 71	 50	 18	 768	 -256	 618	 absent	 properTrial	 left	 1	 11.731
linesB	 71	 50	 19	 640	 -128	 501	 absent	 properTrial	 left	 1	 11.731
linesB	 71	 50	 20	 721	 -209	 533	 absent	 properTrial	 left	 1	 11.731
linesB	 71	 50	 21	 733	 -221	 497	 absent	 properTrial	 left	 1	 11.731
linesB	 71	 50	 22	 810	 -298	 480	 absent	 properTrial	 left	 1	 11.731
linesB	 71	 50	 23	 870	 -358	 441	 absent	 properTrial	 left	 1	 11.731
linesB	 71	 50	 24	 919	 -407	 421	 absent	 properTrial	 left	 1	 11.731
linesB	 71	 50	 25	 910	 -398	 408	 absent	 properTrial	 left	 1	 11.731
linesB	 71	 50	 26	 872	 -360	 381	 absent	 properTrial	 left	 1	 11.731
linesB	 71	 50	 27	 923	 -411	 314	 absent	 properTrial	 left	 1	 11.731
linesB	 71	 50	 28	 943	 -431	 214	 absent	 properTrial	 left	 1	 11.731
linesB	 71	 50	 29	 919	 -407	 278	 absent	 properTrial	 left	 1	 11.731
linesB	 71	 50	 30	 1014	 -502	 91	 absent	 properTrial	 left	 1	 11.731
linesB	 71	 50	 31	 1070	 -558	 50	 absent	 properTrial	 left	 1	 11.731
linesB	 71	 50	 32	 566	 -54	 182	 absent	 properTrial	 left	 1	 11.731
linesB	 71	 50	 33	 575	 -63	 145	 absent	 properTrial	 left	 1	 11.731
linesB	 71	 50	 34	 822	 -310	 158	 absent	 properTrial	 left	 1	 11.731
linesB	 71	 50	 35	 769	 -257	 125	 absent	 properTrial	 left	 1	 11.731
linesB	 71	 51	 1	 542	 30	 377	 absent	 properTrial	 right	 0	 9.363
linesB	 71	 51	 2	 408	 -104	 374	 absent	 properTrial	 right	 0	 9.363
linesB	 71	 51	 3	 709	 197	 358	 absent	 properTrial	 right	 0	 9.363
linesB	 71	 51	 4	 998	 486	 509	 absent	 properTrial	 right	 0	 9.363
linesB	 71	 51	 5	 204	 -308	 222	 absent	 properTrial	 right	 0	 9.363
linesB	 71	 51	 6	 471	 -41	 91	 absent	 properTrial	 right	 0	 9.363
linesB	 71	 51	 7	 462	 -50	 86	 absent	 properTrial	 right	 0	 9.363
linesB	 71	 51	 8	 346	 -166	 94	 absent	 properTrial	 right	 0	 9.363
linesB	 71	 51	 9	 330	 -182	 88	 absent	 properTrial	 right	 0	 9.363
linesB	 71	 51	 10	 377	 -135	 625	 absent	 properTrial	 right	 0	 9.363
linesB	 71	 51	 11	 334	 -178	 614	 absent	 properTrial	 right	 0	 9.363
linesB	 71	 51	 12	 384	 -128	 567	 absent	 properTrial	 right	 0	 9.363
linesB	 71	 51	 13	 450	 -62	 713	 absent	 properTrial	 right	 0	 9.363
linesB	 71	 51	 14	 346	 -166	 682	 absent	 properTrial	 right	 0	 9.363
linesB	 71	 51	 15	 94	 -418	 630	 absent	 properTrial	 right	 0	 9.363
linesB	 71	 51	 16	 58	 -454	 513	 absent	 properTrial	 right	 0	 9.363
linesB	 71	 51	 17	 75	 -437	 492	 absent	 properTrial	 right	 0	 9.363
linesB	 71	 51	 18	 55	 -457	 398	 absent	 properTrial	 right	 0	 9.363
linesB	 71	 51	 19	 66	 -446	 378	 absent	 properTrial	 right	 0	 9.363
linesB	 71	 51	 20	 87	 -425	 518	 absent	 properTrial	 right	 0	 9.363
linesB	 71	 51	 21	 87	 -425	 502	 absent	 properTrial	 right	 0	 9.363
linesB	 71	 51	 22	 85	 -427	 304	 absent	 properTrial	 right	 0	 9.363
linesB	 71	 51	 23	 81	 -431	 268	 absent	 properTrial	 right	 0	 9.363
linesB	 71	 51	 24	 64	 -448	 239	 absent	 properTrial	 right	 0	 9.363
linesB	 71	 51	 25	 68	 -444	 146	 absent	 properTrial	 right	 0	 9.363
linesB	 71	 51	 26	 88	 -424	 118	 absent	 properTrial	 right	 0	 9.363
linesB	 71	 51	 27	 33	 -479	 56	 absent	 properTrial	 right	 0	 9.363
linesB	 71	 51	 28	 32	 -480	 31	 absent	 properTrial	 right	 0	 9.363
linesB	 71	 51	 29	 338	 -174	 406	 absent	 properTrial	 right	 0	 9.363
linesB	 71	 51	 30	 488	 -24	 386	 absent	 properTrial	 right	 0	 9.363
linesB	 71	 52	 1	 533	 21	 383	 right	 properTrial	 right	 1	 1.032
linesB	 71	 52	 2	 391	 -121	 381	 right	 properTrial	 right	 1	 1.032
linesB	 71	 52	 3	 636	 124	 550	 right	 properTrial	 right	 1	 1.032
linesB	 71	 52	 4	 650	 138	 544	 right	 properTrial	 right	 1	 1.032
linesB	 71	 53	 1	 533	 21	 381	 absent	 properTrial	 right	 1	 11.631
linesB	 71	 53	 2	 426	 -86	 383	 absent	 properTrial	 right	 1	 11.631
linesB	 71	 53	 3	 326	 -186	 308	 absent	 properTrial	 right	 1	 11.631
linesB	 71	 53	 4	 326	 -186	 276	 absent	 properTrial	 right	 1	 11.631
linesB	 71	 53	 5	 508	 -4	 117	 absent	 properTrial	 right	 1	 11.631
linesB	 71	 53	 6	 465	 -47	 127	 absent	 properTrial	 right	 1	 11.631
linesB	 71	 53	 7	 90	 -422	 165	 absent	 properTrial	 right	 1	 11.631
linesB	 71	 53	 8	 157	 -355	 166	 absent	 properTrial	 right	 1	 11.631
linesB	 71	 53	 9	 139	 -373	 174	 absent	 properTrial	 right	 1	 11.631
linesB	 71	 53	 10	 175	 -337	 118	 absent	 properTrial	 right	 1	 11.631
linesB	 71	 53	 11	 184	 -328	 80	 absent	 properTrial	 right	 1	 11.631
linesB	 71	 53	 12	 236	 -276	 73	 absent	 properTrial	 right	 1	 11.631
linesB	 71	 53	 13	 225	 -287	 34	 absent	 properTrial	 right	 1	 11.631
linesB	 71	 53	 14	 296	 -216	 37	 absent	 properTrial	 right	 1	 11.631
linesB	 71	 53	 15	 335	 -177	 36	 absent	 properTrial	 right	 1	 11.631
linesB	 71	 53	 16	 475	 -37	 40	 absent	 properTrial	 right	 1	 11.631
linesB	 71	 53	 17	 245	 -267	 688	 absent	 properTrial	 right	 1	 11.631
linesB	 71	 53	 18	 276	 -236	 686	 absent	 properTrial	 right	 1	 11.631
linesB	 71	 53	 19	 317	 -195	 685	 absent	 properTrial	 right	 1	 11.631
linesB	 71	 53	 20	 349	 -163	 636	 absent	 properTrial	 right	 1	 11.631
linesB	 71	 53	 21	 365	 -147	 594	 absent	 properTrial	 right	 1	 11.631
linesB	 71	 53	 22	 403	 -109	 583	 absent	 properTrial	 right	 1	 11.631
linesB	 71	 53	 23	 439	 -73	 603	 absent	 properTrial	 right	 1	 11.631
linesB	 71	 53	 24	 480	 -32	 606	 absent	 properTrial	 right	 1	 11.631
linesB	 71	 53	 25	 335	 -177	 529	 absent	 properTrial	 right	 1	 11.631
linesB	 71	 53	 26	 304	 -208	 515	 absent	 properTrial	 right	 1	 11.631
linesB	 71	 53	 27	 295	 -217	 474	 absent	 properTrial	 right	 1	 11.631
linesB	 71	 53	 28	 307	 -205	 424	 absent	 properTrial	 right	 1	 11.631
linesB	 71	 53	 29	 302	 -210	 414	 absent	 properTrial	 right	 1	 11.631
linesB	 71	 53	 30	 342	 -170	 442	 absent	 properTrial	 right	 1	 11.631
linesB	 71	 53	 31	 274	 -238	 369	 absent	 properTrial	 right	 1	 11.631
linesB	 71	 53	 32	 324	 -188	 340	 absent	 properTrial	 right	 1	 11.631
linesB	 71	 53	 33	 350	 -162	 329	 absent	 properTrial	 right	 1	 11.631
linesB	 71	 53	 34	 330	 -182	 286	 absent	 properTrial	 right	 1	 11.631
linesB	 71	 53	 35	 301	 -211	 293	 absent	 properTrial	 right	 1	 11.631
linesB	 71	 53	 36	 382	 -130	 277	 absent	 properTrial	 right	 1	 11.631
linesB	 71	 53	 37	 340	 -172	 223	 absent	 properTrial	 right	 1	 11.631
linesB	 71	 53	 38	 392	 -120	 234	 absent	 properTrial	 right	 1	 11.631
linesB	 71	 53	 39	 509	 -3	 240	 absent	 properTrial	 right	 1	 11.631
linesB	 71	 54	 1	 532	 20	 389	 left	 properTrial	 right	 1	 6.450
linesB	 71	 54	 2	 352	 -160	 373	 left	 properTrial	 right	 1	 6.450
linesB	 71	 54	 3	 683	 171	 364	 left	 properTrial	 right	 1	 6.450
linesB	 71	 54	 4	 932	 420	 404	 left	 properTrial	 right	 1	 6.450
linesB	 71	 54	 5	 106	 -406	 260	 left	 properTrial	 right	 1	 6.450
linesB	 71	 54	 6	 376	 -136	 108	 left	 properTrial	 right	 1	 6.450
linesB	 71	 54	 7	 407	 -105	 80	 left	 properTrial	 right	 1	 6.450
linesB	 71	 54	 8	 470	 -42	 81	 left	 properTrial	 right	 1	 6.450
linesB	 71	 54	 9	 453	 -59	 679	 left	 properTrial	 right	 1	 6.450
linesB	 71	 54	 10	 423	 -89	 662	 left	 properTrial	 right	 1	 6.450
linesB	 71	 54	 11	 417	 -95	 557	 left	 properTrial	 right	 1	 6.450
linesB	 71	 54	 12	 400	 -112	 540	 left	 properTrial	 right	 1	 6.450
linesB	 71	 54	 13	 304	 -208	 547	 left	 properTrial	 right	 1	 6.450
linesB	 71	 54	 14	 309	 -203	 474	 left	 properTrial	 right	 1	 6.450
linesB	 71	 54	 15	 515	 3	 472	 left	 properTrial	 right	 1	 6.450
linesB	 71	 54	 16	 502	 -10	 512	 left	 properTrial	 right	 1	 6.450
linesB	 71	 54	 17	 405	 -107	 698	 left	 properTrial	 right	 1	 6.450
linesB	 71	 54	 18	 118	 -394	 662	 left	 properTrial	 right	 1	 6.450
linesB	 71	 54	 19	 136	 -376	 632	 left	 properTrial	 right	 1	 6.450
linesB	 71	 54	 20	 174	 -338	 637	 left	 properTrial	 right	 1	 6.450
linesB	 71	 55	 1	 539	 -27	 391	 absent	 properTrial	 left	 1	 11.823
linesB	 71	 55	 2	 382	 130	 372	 absent	 properTrial	 left	 1	 11.823
linesB	 71	 55	 3	 788	 -276	 348	 absent	 properTrial	 left	 1	 11.823
linesB	 71	 55	 4	 846	 -334	 326	 absent	 properTrial	 left	 1	 11.823
linesB	 71	 55	 5	 596	 -84	 328	 absent	 properTrial	 left	 1	 11.823
linesB	 71	 55	 6	 889	 -377	 707	 absent	 properTrial	 left	 1	 11.823
linesB	 71	 55	 7	 815	 -303	 702	 absent	 properTrial	 left	 1	 11.823
linesB	 71	 55	 8	 811	 -299	 657	 absent	 properTrial	 left	 1	 11.823
linesB	 71	 55	 9	 990	 -478	 91	 absent	 properTrial	 left	 1	 11.823
linesB	 71	 55	 10	 920	 -408	 -19	 absent	 properTrial	 left	 1	 11.823
linesB	 71	 55	 11	 637	 -125	 32	 absent	 properTrial	 left	 1	 11.823
linesB	 71	 55	 12	 878	 -366	 271	 absent	 properTrial	 left	 1	 11.823
linesB	 71	 55	 13	 827	 -315	 224	 absent	 properTrial	 left	 1	 11.823
linesB	 71	 55	 14	 918	 -406	 204	 absent	 properTrial	 left	 1	 11.823
linesB	 71	 55	 15	 975	 -463	 143	 absent	 properTrial	 left	 1	 11.823
linesB	 71	 55	 16	 925	 -413	 280	 absent	 properTrial	 left	 1	 11.823
linesB	 71	 55	 17	 964	 -452	 326	 absent	 properTrial	 left	 1	 11.823
linesB	 71	 55	 18	 896	 -384	 393	 absent	 properTrial	 left	 1	 11.823
linesB	 71	 55	 19	 904	 -392	 450	 absent	 properTrial	 left	 1	 11.823
linesB	 71	 55	 20	 894	 -382	 509	 absent	 properTrial	 left	 1	 11.823
linesB	 71	 55	 21	 848	 -336	 499	 absent	 properTrial	 left	 1	 11.823
linesB	 71	 55	 22	 976	 -464	 500	 absent	 properTrial	 left	 1	 11.823
linesB	 71	 55	 23	 939	 -427	 512	 absent	 properTrial	 left	 1	 11.823
linesB	 71	 55	 24	 922	 -410	 625	 absent	 properTrial	 left	 1	 11.823
linesB	 71	 55	 25	 936	 -424	 596	 absent	 properTrial	 left	 1	 11.823
linesB	 71	 55	 26	 899	 -387	 585	 absent	 properTrial	 left	 1	 11.823
linesB	 71	 55	 27	 717	 -205	 539	 absent	 properTrial	 left	 1	 11.823
linesB	 71	 55	 28	 818	 -306	 683	 absent	 properTrial	 left	 1	 11.823
linesB	 71	 55	 29	 807	 -295	 671	 absent	 properTrial	 left	 1	 11.823
linesB	 71	 55	 30	 615	 -103	 699	 absent	 properTrial	 left	 1	 11.823
linesB	 71	 55	 31	 641	 -129	 706	 absent	 properTrial	 left	 1	 11.823
linesB	 71	 55	 32	 908	 -396	 696	 absent	 properTrial	 left	 1	 11.823
linesB	 71	 55	 33	 927	 -415	 700	 absent	 properTrial	 left	 1	 11.823
linesB	 71	 55	 34	 672	 -160	 538	 absent	 properTrial	 left	 1	 11.823
linesB	 71	 56	 1	 516	 4	 386	 absent	 properTrial	 right	 1	 13.718
linesB	 71	 56	 2	 423	 -89	 393	 absent	 properTrial	 right	 1	 13.718
linesB	 71	 56	 3	 742	 230	 358	 absent	 properTrial	 right	 1	 13.718
linesB	 71	 56	 4	 270	 -242	 251	 absent	 properTrial	 right	 1	 13.718
linesB	 71	 56	 5	 337	 -175	 230	 absent	 properTrial	 right	 1	 13.718
linesB	 71	 56	 6	 502	 -10	 204	 absent	 properTrial	 right	 1	 13.718
linesB	 71	 56	 7	 462	 -50	 159	 absent	 properTrial	 right	 1	 13.718
linesB	 71	 56	 8	 476	 -36	 83	 absent	 properTrial	 right	 1	 13.718
linesB	 71	 56	 9	 503	 -9	 79	 absent	 properTrial	 right	 1	 13.718
linesB	 71	 56	 10	 437	 -75	 97	 absent	 properTrial	 right	 1	 13.718
linesB	 71	 56	 11	 379	 -133	 690	 absent	 properTrial	 right	 1	 13.718
linesB	 71	 56	 12	 446	 -66	 703	 absent	 properTrial	 right	 1	 13.718
linesB	 71	 56	 13	 454	 -58	 616	 absent	 properTrial	 right	 1	 13.718
linesB	 71	 56	 14	 421	 -91	 613	 absent	 properTrial	 right	 1	 13.718
linesB	 71	 56	 15	 422	 -90	 581	 absent	 properTrial	 right	 1	 13.718
linesB	 71	 56	 16	 406	 -106	 525	 absent	 properTrial	 right	 1	 13.718
linesB	 71	 56	 17	 427	 -85	 527	 absent	 properTrial	 right	 1	 13.718
linesB	 71	 56	 18	 361	 -151	 443	 absent	 properTrial	 right	 1	 13.718
linesB	 71	 56	 19	 379	 -133	 446	 absent	 properTrial	 right	 1	 13.718
linesB	 71	 56	 20	 373	 -139	 444	 absent	 properTrial	 right	 1	 13.718
linesB	 71	 56	 21	 455	 -57	 447	 absent	 properTrial	 right	 1	 13.718
linesB	 71	 56	 22	 420	 -92	 443	 absent	 properTrial	 right	 1	 13.718
linesB	 71	 56	 23	 328	 -184	 390	 absent	 properTrial	 right	 1	 13.718
linesB	 71	 56	 24	 292	 -220	 355	 absent	 properTrial	 right	 1	 13.718
linesB	 71	 56	 25	 110	 -402	 104	 absent	 properTrial	 right	 1	 13.718
linesB	 71	 56	 26	 169	 -343	 718	 absent	 properTrial	 right	 1	 13.718
linesB	 71	 56	 27	 159	 -353	 661	 absent	 properTrial	 right	 1	 13.718
linesB	 71	 56	 28	 220	 -292	 671	 absent	 properTrial	 right	 1	 13.718
linesB	 71	 56	 29	 212	 -300	 605	 absent	 properTrial	 right	 1	 13.718
linesB	 71	 56	 30	 208	 -304	 526	 absent	 properTrial	 right	 1	 13.718
linesB	 71	 56	 31	 218	 -294	 511	 absent	 properTrial	 right	 1	 13.718
linesB	 71	 56	 32	 214	 -298	 452	 absent	 properTrial	 right	 1	 13.718
linesB	 71	 56	 33	 190	 -322	 426	 absent	 properTrial	 right	 1	 13.718
linesB	 71	 56	 34	 193	 -319	 389	 absent	 properTrial	 right	 1	 13.718
linesB	 71	 56	 35	 251	 -261	 395	 absent	 properTrial	 right	 1	 13.718
linesB	 71	 56	 36	 129	 -383	 365	 absent	 properTrial	 right	 1	 13.718
linesB	 71	 56	 37	 371	 -141	 327	 absent	 properTrial	 right	 1	 13.718
linesB	 71	 56	 38	 406	 -106	 347	 absent	 properTrial	 right	 1	 13.718
linesB	 71	 56	 39	 338	 -174	 314	 absent	 properTrial	 right	 1	 13.718
linesB	 71	 56	 40	 415	 -97	 294	 absent	 properTrial	 right	 1	 13.718
linesB	 71	 56	 41	 382	 -130	 317	 absent	 properTrial	 right	 1	 13.718
linesB	 71	 56	 42	 326	 -186	 309	 absent	 properTrial	 right	 1	 13.718
linesB	 71	 56	 43	 318	 -194	 266	 absent	 properTrial	 right	 1	 13.718
linesB	 71	 57	 1	 531	 19	 386	 left	 properTrial	 right	 0	 11.662
linesB	 71	 57	 2	 753	 241	 386	 left	 properTrial	 right	 0	 11.662
linesB	 71	 57	 3	 372	 -140	 315	 left	 properTrial	 right	 0	 11.662
linesB	 71	 57	 4	 505	 -7	 323	 left	 properTrial	 right	 0	 11.662
linesB	 71	 57	 5	 484	 -28	 158	 left	 properTrial	 right	 0	 11.662
linesB	 71	 57	 6	 452	 -60	 145	 left	 properTrial	 right	 0	 11.662
linesB	 71	 57	 7	 801	 289	 135	 left	 properTrial	 right	 0	 11.662
linesB	 71	 57	 8	 308	 -204	 57	 left	 properTrial	 right	 0	 11.662
linesB	 71	 57	 9	 108	 -404	 102	 left	 properTrial	 right	 0	 11.662
linesB	 71	 57	 10	 85	 -427	 67	 left	 properTrial	 right	 0	 11.662
linesB	 71	 57	 11	 339	 -173	 698	 left	 properTrial	 right	 0	 11.662
linesB	 71	 57	 12	 339	 -173	 733	 left	 properTrial	 right	 0	 11.662
linesB	 71	 57	 13	 423	 -89	 714	 left	 properTrial	 right	 0	 11.662
linesB	 71	 57	 14	 175	 -337	 684	 left	 properTrial	 right	 0	 11.662
linesB	 71	 57	 15	 259	 -253	 688	 left	 properTrial	 right	 0	 11.662
linesB	 71	 57	 16	 391	 -121	 501	 left	 properTrial	 right	 0	 11.662
linesB	 71	 57	 17	 370	 -142	 553	 left	 properTrial	 right	 0	 11.662
linesB	 71	 57	 18	 419	 -93	 586	 left	 properTrial	 right	 0	 11.662
linesB	 71	 57	 19	 290	 -222	 452	 left	 properTrial	 right	 0	 11.662
linesB	 71	 57	 20	 330	 -182	 457	 left	 properTrial	 right	 0	 11.662
linesB	 71	 57	 21	 341	 -171	 324	 left	 properTrial	 right	 0	 11.662
linesB	 71	 57	 22	 371	 -141	 328	 left	 properTrial	 right	 0	 11.662
linesB	 71	 57	 23	 376	 -136	 255	 left	 properTrial	 right	 0	 11.662
linesB	 71	 57	 24	 367	 -145	 260	 left	 properTrial	 right	 0	 11.662
linesB	 71	 57	 25	 218	 -294	 293	 left	 properTrial	 right	 0	 11.662
linesB	 71	 57	 26	 239	 -273	 306	 left	 properTrial	 right	 0	 11.662
linesB	 71	 57	 27	 180	 -332	 319	 left	 properTrial	 right	 0	 11.662
linesB	 71	 57	 28	 438	 -74	 290	 left	 properTrial	 right	 0	 11.662
linesB	 71	 57	 29	 468	 -44	 289	 left	 properTrial	 right	 0	 11.662
linesB	 71	 57	 30	 407	 -105	 245	 left	 properTrial	 right	 0	 11.662
linesB	 71	 57	 31	 241	 -271	 243	 left	 properTrial	 right	 0	 11.662
linesB	 71	 57	 32	 417	 -95	 654	 left	 properTrial	 right	 0	 11.662
linesB	 71	 57	 33	 500	 -12	 622	 left	 properTrial	 right	 0	 11.662
linesB	 71	 57	 34	 97	 -415	 188	 left	 properTrial	 right	 0	 11.662
linesB	 71	 57	 35	 81	 -431	 136	 left	 properTrial	 right	 0	 11.662
linesB	 71	 57	 36	 35	 -477	 139	 left	 properTrial	 right	 0	 11.662
linesB	 71	 58	 1	 528	 16	 376	 right	 properTrial	 right	 1	 0.942
linesB	 71	 58	 2	 362	 -150	 359	 right	 properTrial	 right	 1	 0.942
linesB	 71	 58	 3	 935	 423	 16	 right	 properTrial	 right	 1	 0.942
linesB	 71	 59	 1	 533	 21	 375	 left	 properTrial	 right	 0	 17.044
linesB	 71	 59	 2	 804	 292	 353	 left	 properTrial	 right	 0	 17.044
linesB	 71	 59	 3	 243	 -269	 241	 left	 properTrial	 right	 0	 17.044
linesB	 71	 59	 4	 436	 -76	 96	 left	 properTrial	 right	 0	 17.044
linesB	 71	 59	 5	 463	 -49	 99	 left	 properTrial	 right	 0	 17.044
linesB	 71	 59	 6	 454	 -58	 92	 left	 properTrial	 right	 0	 17.044
linesB	 71	 59	 7	 149	 -363	 135	 left	 properTrial	 right	 0	 17.044
linesB	 71	 59	 8	 213	 -299	 126	 left	 properTrial	 right	 0	 17.044
linesB	 71	 59	 9	 168	 -344	 77	 left	 properTrial	 right	 0	 17.044
linesB	 71	 59	 10	 244	 -268	 155	 left	 properTrial	 right	 0	 17.044
linesB	 71	 59	 11	 284	 -228	 144	 left	 properTrial	 right	 0	 17.044
linesB	 71	 59	 12	 282	 -230	 139	 left	 properTrial	 right	 0	 17.044
linesB	 71	 59	 13	 320	 -192	 419	 left	 properTrial	 right	 0	 17.044
linesB	 71	 59	 14	 332	 -180	 409	 left	 properTrial	 right	 0	 17.044
linesB	 71	 59	 15	 374	 -138	 387	 left	 properTrial	 right	 0	 17.044
linesB	 71	 59	 16	 448	 -64	 403	 left	 properTrial	 right	 0	 17.044
linesB	 71	 59	 17	 207	 -305	 383	 left	 properTrial	 right	 0	 17.044
linesB	 71	 59	 18	 191	 -321	 388	 left	 properTrial	 right	 0	 17.044
linesB	 71	 59	 19	 100	 -412	 378	 left	 properTrial	 right	 0	 17.044
linesB	 71	 59	 20	 146	 -366	 348	 left	 properTrial	 right	 0	 17.044
linesB	 71	 59	 21	 189	 -323	 354	 left	 properTrial	 right	 0	 17.044
linesB	 71	 59	 22	 320	 -192	 625	 left	 properTrial	 right	 0	 17.044
linesB	 71	 59	 23	 347	 -165	 652	 left	 properTrial	 right	 0	 17.044
linesB	 71	 59	 24	 428	 -84	 676	 left	 properTrial	 right	 0	 17.044
linesB	 71	 59	 25	 480	 -32	 685	 left	 properTrial	 right	 0	 17.044
linesB	 71	 59	 26	 208	 -304	 640	 left	 properTrial	 right	 0	 17.044
linesB	 71	 59	 27	 225	 -287	 622	 left	 properTrial	 right	 0	 17.044
linesB	 71	 59	 28	 322	 -190	 607	 left	 properTrial	 right	 0	 17.044
linesB	 71	 59	 29	 349	 -163	 604	 left	 properTrial	 right	 0	 17.044
linesB	 71	 59	 30	 394	 -118	 576	 left	 properTrial	 right	 0	 17.044
linesB	 71	 59	 31	 383	 -129	 567	 left	 properTrial	 right	 0	 17.044
linesB	 71	 59	 32	 407	 -105	 516	 left	 properTrial	 right	 0	 17.044
linesB	 71	 59	 33	 454	 -58	 519	 left	 properTrial	 right	 0	 17.044
linesB	 71	 59	 34	 385	 -127	 477	 left	 properTrial	 right	 0	 17.044
linesB	 71	 59	 35	 398	 -114	 434	 left	 properTrial	 right	 0	 17.044
linesB	 71	 59	 36	 426	 -86	 418	 left	 properTrial	 right	 0	 17.044
linesB	 71	 59	 37	 422	 -90	 375	 left	 properTrial	 right	 0	 17.044
linesB	 71	 59	 38	 384	 -128	 331	 left	 properTrial	 right	 0	 17.044
linesB	 71	 59	 39	 376	 -136	 305	 left	 properTrial	 right	 0	 17.044
linesB	 71	 59	 40	 406	 -106	 89	 left	 properTrial	 right	 0	 17.044
linesB	 71	 59	 41	 338	 -174	 119	 left	 properTrial	 right	 0	 17.044
linesB	 71	 59	 42	 374	 -138	 105	 left	 properTrial	 right	 0	 17.044
linesB	 71	 59	 43	 366	 -146	 45	 left	 properTrial	 right	 0	 17.044
linesB	 71	 59	 44	 329	 -183	 103	 left	 properTrial	 right	 0	 17.044
linesB	 71	 59	 45	 94	 -418	 99	 left	 properTrial	 right	 0	 17.044
linesB	 71	 59	 46	 77	 -435	 70	 left	 properTrial	 right	 0	 17.044
linesB	 71	 59	 47	 215	 -297	 586	 left	 properTrial	 right	 0	 17.044
linesB	 71	 59	 48	 262	 -250	 600	 left	 properTrial	 right	 0	 17.044
linesB	 71	 59	 49	 194	 -318	 689	 left	 properTrial	 right	 0	 17.044
linesB	 71	 59	 50	 221	 -291	 684	 left	 properTrial	 right	 0	 17.044
linesB	 71	 59	 51	 177	 -335	 673	 left	 properTrial	 right	 0	 17.044
linesB	 71	 59	 52	 173	 -339	 647	 left	 properTrial	 right	 0	 17.044
linesB	 71	 59	 53	 472	 -40	 708	 left	 properTrial	 right	 0	 17.044
linesB	 71	 59	 54	 210	 -302	 604	 left	 properTrial	 right	 0	 17.044
linesB	 71	 59	 55	 840	 328	 685	 left	 properTrial	 right	 0	 17.044
linesB	 71	 59	 56	 843	 331	 690	 left	 properTrial	 right	 0	 17.044
linesB	 71	 59	 57	 898	 386	 681	 left	 properTrial	 right	 0	 17.044
linesB	 71	 59	 58	 936	 424	 718	 left	 properTrial	 right	 0	 17.044
linesB	 71	 59	 59	 457	 -55	 467	 left	 properTrial	 right	 0	 17.044
linesB	 71	 60	 1	 528	 16	 402	 left	 properTrial	 right	 0	 15.711
linesB	 71	 60	 2	 292	 -220	 390	 left	 properTrial	 right	 0	 15.711
linesB	 71	 60	 3	 285	 -227	 374	 left	 properTrial	 right	 0	 15.711
linesB	 71	 60	 4	 214	 -298	 366	 left	 properTrial	 right	 0	 15.711
linesB	 71	 60	 5	 74	 -438	 345	 left	 properTrial	 right	 0	 15.711
linesB	 71	 60	 6	 159	 -353	 353	 left	 properTrial	 right	 0	 15.711
linesB	 71	 60	 7	 398	 -114	 123	 left	 properTrial	 right	 0	 15.711
linesB	 71	 60	 8	 430	 -82	 107	 left	 properTrial	 right	 0	 15.711
linesB	 71	 60	 9	 441	 -71	 103	 left	 properTrial	 right	 0	 15.711
linesB	 71	 60	 10	 465	 -47	 80	 left	 properTrial	 right	 0	 15.711
linesB	 71	 60	 11	 182	 -330	 443	 left	 properTrial	 right	 0	 15.711
linesB	 71	 60	 12	 272	 -240	 406	 left	 properTrial	 right	 0	 15.711
linesB	 71	 60	 13	 244	 -268	 357	 left	 properTrial	 right	 0	 15.711
linesB	 71	 60	 14	 51	 -461	 71	 left	 properTrial	 right	 0	 15.711
linesB	 71	 60	 15	 105	 -407	 103	 left	 properTrial	 right	 0	 15.711
linesB	 71	 60	 16	 193	 -319	 122	 left	 properTrial	 right	 0	 15.711
linesB	 71	 60	 17	 193	 -319	 78	 left	 properTrial	 right	 0	 15.711
linesB	 71	 60	 18	 328	 -184	 265	 left	 properTrial	 right	 0	 15.711
linesB	 71	 60	 19	 418	 -94	 205	 left	 properTrial	 right	 0	 15.711
linesB	 71	 60	 20	 419	 -93	 192	 left	 properTrial	 right	 0	 15.711
linesB	 71	 60	 21	 382	 -130	 148	 left	 properTrial	 right	 0	 15.711
linesB	 71	 60	 22	 369	 -143	 366	 left	 properTrial	 right	 0	 15.711
linesB	 71	 60	 23	 423	 -89	 349	 left	 properTrial	 right	 0	 15.711
linesB	 71	 60	 24	 423	 -89	 330	 left	 properTrial	 right	 0	 15.711
linesB	 71	 60	 25	 448	 -64	 660	 left	 properTrial	 right	 0	 15.711
linesB	 71	 60	 26	 382	 -130	 685	 left	 properTrial	 right	 0	 15.711
linesB	 71	 60	 27	 345	 -167	 654	 left	 properTrial	 right	 0	 15.711
linesB	 71	 60	 28	 291	 -221	 664	 left	 properTrial	 right	 0	 15.711
linesB	 71	 60	 29	 309	 -203	 637	 left	 properTrial	 right	 0	 15.711
linesB	 71	 60	 30	 428	 -84	 650	 left	 properTrial	 right	 0	 15.711
linesB	 71	 60	 31	 401	 -111	 582	 left	 properTrial	 right	 0	 15.711
linesB	 71	 60	 32	 396	 -116	 560	 left	 properTrial	 right	 0	 15.711
linesB	 71	 60	 33	 336	 -176	 559	 left	 properTrial	 right	 0	 15.711
linesB	 71	 60	 34	 337	 -175	 514	 left	 properTrial	 right	 0	 15.711
linesB	 71	 60	 35	 454	 -58	 531	 left	 properTrial	 right	 0	 15.711
linesB	 71	 60	 36	 467	 -45	 483	 left	 properTrial	 right	 0	 15.711
linesB	 71	 60	 37	 433	 -79	 441	 left	 properTrial	 right	 0	 15.711
linesB	 71	 60	 38	 121	 -391	 495	 left	 properTrial	 right	 0	 15.711
linesB	 71	 60	 39	 185	 -327	 477	 left	 properTrial	 right	 0	 15.711
linesB	 71	 60	 40	 220	 -292	 406	 left	 properTrial	 right	 0	 15.711
linesB	 71	 60	 41	 157	 -355	 326	 left	 properTrial	 right	 0	 15.711
linesB	 71	 60	 42	 218	 -294	 306	 left	 properTrial	 right	 0	 15.711
linesB	 71	 60	 43	 277	 -235	 245	 left	 properTrial	 right	 0	 15.711
linesB	 71	 60	 44	 244	 -268	 266	 left	 properTrial	 right	 0	 15.711
linesB	 71	 60	 45	 456	 -56	 275	 left	 properTrial	 right	 0	 15.711
linesB	 71	 60	 46	 511	 -1	 333	 left	 properTrial	 right	 0	 15.711
linesB	 71	 60	 47	 395	 -117	 331	 left	 properTrial	 right	 0	 15.711
linesB	 71	 60	 48	 64	 -448	 63	 left	 properTrial	 right	 0	 15.711
linesB	 71	 60	 49	 156	 -356	 559	 left	 properTrial	 right	 0	 15.711
linesB	 71	 60	 50	 112	 -400	 661	 left	 properTrial	 right	 0	 15.711
linesB	 71	 61	 1	 522	 -10	 411	 absent	 properTrial	 left	 0	 14.186
linesB	 71	 61	 2	 228	 284	 409	 absent	 properTrial	 left	 0	 14.186
linesB	 71	 61	 3	 571	 -59	 56	 absent	 properTrial	 left	 0	 14.186
linesB	 71	 61	 4	 628	 -116	 86	 absent	 properTrial	 left	 0	 14.186
linesB	 71	 61	 5	 612	 -100	 40	 absent	 properTrial	 left	 0	 14.186
linesB	 71	 61	 6	 957	 -445	 697	 absent	 properTrial	 left	 0	 14.186
linesB	 71	 61	 7	 845	 -333	 708	 absent	 properTrial	 left	 0	 14.186
linesB	 71	 61	 8	 708	 -196	 703	 absent	 properTrial	 left	 0	 14.186
linesB	 71	 61	 9	 745	 -233	 672	 absent	 properTrial	 left	 0	 14.186
linesB	 71	 61	 10	 759	 -247	 656	 absent	 properTrial	 left	 0	 14.186
linesB	 71	 61	 11	 797	 -285	 605	 absent	 properTrial	 left	 0	 14.186
linesB	 71	 61	 12	 841	 -329	 610	 absent	 properTrial	 left	 0	 14.186
linesB	 71	 61	 13	 855	 -343	 569	 absent	 properTrial	 left	 0	 14.186
linesB	 71	 61	 14	 850	 -338	 527	 absent	 properTrial	 left	 0	 14.186
linesB	 71	 61	 15	 889	 -377	 466	 absent	 properTrial	 left	 0	 14.186
linesB	 71	 61	 16	 899	 -387	 440	 absent	 properTrial	 left	 0	 14.186
linesB	 71	 61	 17	 712	 -200	 540	 absent	 properTrial	 left	 0	 14.186
linesB	 71	 61	 18	 727	 -215	 495	 absent	 properTrial	 left	 0	 14.186
linesB	 71	 61	 19	 716	 -204	 491	 absent	 properTrial	 left	 0	 14.186
linesB	 71	 61	 20	 741	 -229	 413	 absent	 properTrial	 left	 0	 14.186
linesB	 71	 61	 21	 555	 -43	 447	 absent	 properTrial	 left	 0	 14.186
linesB	 71	 61	 22	 619	 -107	 436	 absent	 properTrial	 left	 0	 14.186
linesB	 71	 61	 23	 632	 -120	 449	 absent	 properTrial	 left	 0	 14.186
linesB	 71	 61	 24	 592	 -80	 408	 absent	 properTrial	 left	 0	 14.186
linesB	 71	 61	 25	 706	 -194	 298	 absent	 properTrial	 left	 0	 14.186
linesB	 71	 61	 26	 752	 -240	 275	 absent	 properTrial	 left	 0	 14.186
linesB	 71	 61	 27	 783	 -271	 266	 absent	 properTrial	 left	 0	 14.186
linesB	 71	 61	 28	 896	 -384	 286	 absent	 properTrial	 left	 0	 14.186
linesB	 71	 61	 29	 966	 -454	 246	 absent	 properTrial	 left	 0	 14.186
linesB	 71	 61	 30	 971	 -459	 160	 absent	 properTrial	 left	 0	 14.186
linesB	 71	 61	 31	 873	 -361	 167	 absent	 properTrial	 left	 0	 14.186
linesB	 71	 61	 32	 819	 -307	 163	 absent	 properTrial	 left	 0	 14.186
linesB	 71	 61	 33	 849	 -337	 157	 absent	 properTrial	 left	 0	 14.186
linesB	 71	 61	 34	 819	 -307	 124	 absent	 properTrial	 left	 0	 14.186
linesB	 71	 61	 35	 827	 -315	 111	 absent	 properTrial	 left	 0	 14.186
linesB	 71	 61	 36	 915	 -403	 115	 absent	 properTrial	 left	 0	 14.186
linesB	 71	 61	 37	 1019	 -507	 73	 absent	 properTrial	 left	 0	 14.186
linesB	 71	 61	 38	 983	 -471	 24	 absent	 properTrial	 left	 0	 14.186
linesB	 71	 61	 39	 569	 -57	 416	 absent	 properTrial	 left	 0	 14.186
linesB	 71	 61	 40	 553	 -41	 360	 absent	 properTrial	 left	 0	 14.186
linesB	 71	 62	 1	 522	 10	 403	 right	 properTrial	 right	 1	 0.899
linesB	 71	 62	 2	 630	 118	 347	 right	 properTrial	 right	 1	 0.899
linesB	 71	 62	 3	 638	 126	 332	 right	 properTrial	 right	 1	 0.899
linesB	 71	 63	 1	 526	 -14	 402	 right	 properTrial	 left	 1	 8.365
linesB	 71	 63	 2	 573	 -61	 393	 right	 properTrial	 left	 1	 8.365
linesB	 71	 63	 3	 1088	 -576	 -28	 right	 properTrial	 left	 1	 8.365
linesB	 71	 63	 4	 1084	 -572	 -58	 right	 properTrial	 left	 1	 8.365
linesB	 71	 63	 5	 376	 136	 284	 right	 properTrial	 left	 1	 8.365
linesB	 71	 63	 6	 280	 232	 639	 right	 properTrial	 left	 1	 8.365
linesB	 71	 63	 7	 965	 -453	 599	 right	 properTrial	 left	 1	 8.365
linesB	 71	 63	 8	 962	 -450	 564	 right	 properTrial	 left	 1	 8.365
linesB	 71	 63	 9	 968	 -456	 532	 right	 properTrial	 left	 1	 8.365
linesB	 71	 63	 10	 931	 -419	 485	 right	 properTrial	 left	 1	 8.365
linesB	 71	 63	 11	 979	 -467	 460	 right	 properTrial	 left	 1	 8.365
linesB	 71	 63	 12	 986	 -474	 393	 right	 properTrial	 left	 1	 8.365
linesB	 71	 63	 13	 944	 -432	 383	 right	 properTrial	 left	 1	 8.365
linesB	 71	 63	 14	 978	 -466	 324	 right	 properTrial	 left	 1	 8.365
linesB	 71	 63	 15	 1005	 -493	 266	 right	 properTrial	 left	 1	 8.365
linesB	 71	 63	 16	 1004	 -492	 241	 right	 properTrial	 left	 1	 8.365
linesB	 71	 63	 17	 796	 -284	 9	 right	 properTrial	 left	 1	 8.365
linesB	 71	 63	 18	 665	 -153	 42	 right	 properTrial	 left	 1	 8.365
linesB	 71	 63	 19	 636	 -124	 43	 right	 properTrial	 left	 1	 8.365
linesB	 71	 63	 20	 901	 -389	 127	 right	 properTrial	 left	 1	 8.365
linesB	 71	 63	 21	 922	 -410	 83	 right	 properTrial	 left	 1	 8.365
linesB	 71	 63	 22	 932	 -420	 102	 right	 properTrial	 left	 1	 8.365
linesB	 71	 64	 1	 516	 -4	 396	 absent	 properTrial	 left	 1	 11.467
linesB	 71	 64	 2	 723	 -211	 324	 absent	 properTrial	 left	 1	 11.467
linesB	 71	 64	 3	 388	 124	 304	 absent	 properTrial	 left	 1	 11.467
linesB	 71	 64	 4	 995	 -483	 327	 absent	 properTrial	 left	 1	 11.467
linesB	 71	 64	 5	 999	 -487	 316	 absent	 properTrial	 left	 1	 11.467
linesB	 71	 64	 6	 974	 -462	 424	 absent	 properTrial	 left	 1	 11.467
linesB	 71	 64	 7	 936	 -424	 376	 absent	 properTrial	 left	 1	 11.467
linesB	 71	 64	 8	 965	 -453	 606	 absent	 properTrial	 left	 1	 11.467
linesB	 71	 64	 9	 898	 -386	 695	 absent	 properTrial	 left	 1	 11.467
linesB	 71	 64	 10	 919	 -407	 654	 absent	 properTrial	 left	 1	 11.467
linesB	 71	 64	 11	 694	 -182	 697	 absent	 properTrial	 left	 1	 11.467
linesB	 71	 64	 12	 728	 -216	 640	 absent	 properTrial	 left	 1	 11.467
linesB	 71	 64	 13	 799	 -287	 638	 absent	 properTrial	 left	 1	 11.467
linesB	 71	 64	 14	 677	 -165	 511	 absent	 properTrial	 left	 1	 11.467
linesB	 71	 64	 15	 576	 -64	 480	 absent	 properTrial	 left	 1	 11.467
linesB	 71	 64	 16	 168	 344	 106	 absent	 properTrial	 left	 1	 11.467
linesB	 71	 64	 17	 461	 51	 175	 absent	 properTrial	 left	 1	 11.467
linesB	 71	 64	 18	 568	 -56	 145	 absent	 properTrial	 left	 1	 11.467
linesB	 71	 64	 19	 602	 -90	 130	 absent	 properTrial	 left	 1	 11.467
linesB	 71	 64	 20	 758	 -246	 199	 absent	 properTrial	 left	 1	 11.467
linesB	 71	 64	 21	 687	 -175	 143	 absent	 properTrial	 left	 1	 11.467
linesB	 71	 64	 22	 792	 -280	 102	 absent	 properTrial	 left	 1	 11.467
linesB	 71	 64	 23	 782	 -270	 76	 absent	 properTrial	 left	 1	 11.467
linesB	 71	 64	 24	 739	 -227	 74	 absent	 properTrial	 left	 1	 11.467
linesB	 71	 64	 25	 898	 -386	 -1	 absent	 properTrial	 left	 1	 11.467
linesB	 71	 64	 26	 925	 -413	 245	 absent	 properTrial	 left	 1	 11.467
linesB	 71	 64	 27	 961	 -449	 210	 absent	 properTrial	 left	 1	 11.467
linesB	 71	 64	 28	 965	 -453	 159	 absent	 properTrial	 left	 1	 11.467
linesB	 71	 64	 29	 791	 -279	 292	 absent	 properTrial	 left	 1	 11.467
linesB	 71	 64	 30	 813	 -301	 273	 absent	 properTrial	 left	 1	 11.467
linesB	 71	 64	 31	 968	 -456	 151	 absent	 properTrial	 left	 1	 11.467
linesB	 71	 64	 32	 1025	 -513	 67	 absent	 properTrial	 left	 1	 11.467
linesB	 71	 64	 33	 818	 -306	 532	 absent	 properTrial	 left	 1	 11.467
linesB	 71	 64	 34	 849	 -337	 522	 absent	 properTrial	 left	 1	 11.467
linesB	 71	 65	 1	 529	 -17	 374	 absent	 properTrial	 left	 0	 8.940
linesB	 71	 65	 2	 634	 -122	 353	 absent	 properTrial	 left	 0	 8.940
linesB	 71	 65	 3	 1031	 -519	 -10	 absent	 properTrial	 left	 0	 8.940
linesB	 71	 65	 4	 942	 -430	 27	 absent	 properTrial	 left	 0	 8.940
linesB	 71	 65	 5	 1059	 -547	 -60	 absent	 properTrial	 left	 0	 8.940
linesB	 71	 65	 6	 432	 80	 150	 absent	 properTrial	 left	 0	 8.940
linesB	 71	 65	 7	 218	 294	 56	 absent	 properTrial	 left	 0	 8.940
linesB	 71	 65	 8	 515	 -3	 420	 absent	 properTrial	 left	 0	 8.940
linesB	 71	 65	 9	 840	 -328	 679	 absent	 properTrial	 left	 0	 8.940
linesB	 71	 65	 10	 902	 -390	 681	 absent	 properTrial	 left	 0	 8.940
linesB	 71	 65	 11	 962	 -450	 643	 absent	 properTrial	 left	 0	 8.940
linesB	 71	 65	 12	 947	 -435	 543	 absent	 properTrial	 left	 0	 8.940
linesB	 71	 65	 13	 971	 -459	 548	 absent	 properTrial	 left	 0	 8.940
linesB	 71	 65	 14	 979	 -467	 509	 absent	 properTrial	 left	 0	 8.940
linesB	 71	 65	 15	 984	 -472	 477	 absent	 properTrial	 left	 0	 8.940
linesB	 71	 65	 16	 991	 -479	 406	 absent	 properTrial	 left	 0	 8.940
linesB	 71	 65	 17	 990	 -478	 365	 absent	 properTrial	 left	 0	 8.940
linesB	 71	 65	 18	 966	 -454	 323	 absent	 properTrial	 left	 0	 8.940
linesB	 71	 65	 19	 989	 -477	 282	 absent	 properTrial	 left	 0	 8.940
linesB	 71	 65	 20	 1010	 -498	 224	 absent	 properTrial	 left	 0	 8.940
linesB	 71	 65	 21	 1026	 -514	 152	 absent	 properTrial	 left	 0	 8.940
linesB	 71	 65	 22	 587	 -75	 358	 absent	 properTrial	 left	 0	 8.940
linesB	 71	 65	 23	 563	 -51	 308	 absent	 properTrial	 left	 0	 8.940
linesB	 71	 65	 24	 604	 -92	 216	 absent	 properTrial	 left	 0	 8.940
linesB	 71	 65	 25	 644	 -132	 183	 absent	 properTrial	 left	 0	 8.940
linesB	 71	 65	 26	 685	 -173	 155	 absent	 properTrial	 left	 0	 8.940
linesB	 71	 65	 27	 732	 -220	 162	 absent	 properTrial	 left	 0	 8.940
linesB	 71	 65	 28	 728	 -216	 104	 absent	 properTrial	 left	 0	 8.940
linesB	 71	 65	 29	 680	 -168	 105	 absent	 properTrial	 left	 0	 8.940
linesB	 71	 66	 1	 525	 -13	 386	 left	 properTrial	 left	 1	 0.772
linesB	 71	 66	 2	 203	 309	 398	 left	 properTrial	 left	 1	 0.772
linesB	 71	 66	 3	 190	 322	 401	 left	 properTrial	 left	 1	 0.772
linesB	 71	 67	 1	 537	 25	 377	 absent	 properTrial	 right	 1	 13.273
linesB	 71	 67	 2	 267	 -245	 383	 absent	 properTrial	 right	 1	 13.273
linesB	 71	 67	 3	 489	 -23	 404	 absent	 properTrial	 right	 1	 13.273
linesB	 71	 67	 4	 513	 1	 378	 absent	 properTrial	 right	 1	 13.273
linesB	 71	 67	 5	 468	 -44	 330	 absent	 properTrial	 right	 1	 13.273
linesB	 71	 67	 6	 467	 -45	 72	 absent	 properTrial	 right	 1	 13.273
linesB	 71	 67	 7	 162	 -350	 45	 absent	 properTrial	 right	 1	 13.273
linesB	 71	 67	 8	 219	 -293	 41	 absent	 properTrial	 right	 1	 13.273
linesB	 71	 67	 9	 307	 -205	 53	 absent	 properTrial	 right	 1	 13.273
linesB	 71	 67	 10	 274	 -238	 35	 absent	 properTrial	 right	 1	 13.273
linesB	 71	 67	 11	 34	 -478	 5	 absent	 properTrial	 right	 1	 13.273
linesB	 71	 67	 12	 218	 -294	 681	 absent	 properTrial	 right	 1	 13.273
linesB	 71	 67	 13	 326	 -186	 668	 absent	 properTrial	 right	 1	 13.273
linesB	 71	 67	 14	 349	 -163	 690	 absent	 properTrial	 right	 1	 13.273
linesB	 71	 67	 15	 412	 -100	 673	 absent	 properTrial	 right	 1	 13.273
linesB	 71	 67	 16	 34	 -478	 459	 absent	 properTrial	 right	 1	 13.273
linesB	 71	 67	 17	 66	 -446	 458	 absent	 properTrial	 right	 1	 13.273
linesB	 71	 67	 18	 197	 -315	 469	 absent	 properTrial	 right	 1	 13.273
linesB	 71	 67	 19	 490	 -22	 718	 absent	 properTrial	 right	 1	 13.273
linesB	 71	 67	 20	 480	 -32	 661	 absent	 properTrial	 right	 1	 13.273
linesB	 71	 67	 21	 363	 -149	 636	 absent	 properTrial	 right	 1	 13.273
linesB	 71	 67	 22	 298	 -214	 626	 absent	 properTrial	 right	 1	 13.273
linesB	 71	 67	 23	 336	 -176	 572	 absent	 properTrial	 right	 1	 13.273
linesB	 71	 67	 24	 297	 -215	 621	 absent	 properTrial	 right	 1	 13.273
linesB	 71	 67	 25	 322	 -190	 552	 absent	 properTrial	 right	 1	 13.273
linesB	 71	 67	 26	 398	 -114	 567	 absent	 properTrial	 right	 1	 13.273
linesB	 71	 67	 27	 291	 -221	 511	 absent	 properTrial	 right	 1	 13.273
linesB	 71	 67	 28	 298	 -214	 465	 absent	 properTrial	 right	 1	 13.273
linesB	 71	 67	 29	 283	 -229	 415	 absent	 properTrial	 right	 1	 13.273
linesB	 71	 67	 30	 282	 -230	 359	 absent	 properTrial	 right	 1	 13.273
linesB	 71	 67	 31	 221	 -291	 310	 absent	 properTrial	 right	 1	 13.273
linesB	 71	 67	 32	 179	 -333	 307	 absent	 properTrial	 right	 1	 13.273
linesB	 71	 67	 33	 139	 -373	 161	 absent	 properTrial	 right	 1	 13.273
linesB	 71	 67	 34	 408	 -104	 172	 absent	 properTrial	 right	 1	 13.273
linesB	 71	 67	 35	 336	 -176	 112	 absent	 properTrial	 right	 1	 13.273
linesB	 71	 67	 36	 372	 -140	 122	 absent	 properTrial	 right	 1	 13.273
linesB	 71	 67	 37	 148	 -364	 82	 absent	 properTrial	 right	 1	 13.273
linesB	 71	 67	 38	 186	 -326	 119	 absent	 properTrial	 right	 1	 13.273
linesB	 71	 67	 39	 469	 -43	 486	 absent	 properTrial	 right	 1	 13.273
linesB	 71	 67	 40	 522	 10	 494	 absent	 properTrial	 right	 1	 13.273
linesB	 71	 67	 41	 348	 -164	 532	 absent	 properTrial	 right	 1	 13.273
linesB	 71	 67	 42	 281	 -231	 523	 absent	 properTrial	 right	 1	 13.273
linesB	 71	 67	 43	 504	 -8	 422	 absent	 properTrial	 right	 1	 13.273
linesB	 71	 68	 1	 533	 21	 374	 left	 properTrial	 right	 1	 10.120
linesB	 71	 68	 2	 394	 -118	 365	 left	 properTrial	 right	 1	 10.120
linesB	 71	 68	 3	 422	 -90	 356	 left	 properTrial	 right	 1	 10.120
linesB	 71	 68	 4	 509	 -3	 162	 left	 properTrial	 right	 1	 10.120
linesB	 71	 68	 5	 510	 -2	 266	 left	 properTrial	 right	 1	 10.120
linesB	 71	 68	 6	 754	 242	 549	 left	 properTrial	 right	 1	 10.120
linesB	 71	 68	 7	 112	 -400	 110	 left	 properTrial	 right	 1	 10.120
linesB	 71	 68	 8	 66	 -446	 45	 left	 properTrial	 right	 1	 10.120
linesB	 71	 68	 9	 460	 -52	 67	 left	 properTrial	 right	 1	 10.120
linesB	 71	 68	 10	 427	 -85	 59	 left	 properTrial	 right	 1	 10.120
linesB	 71	 68	 11	 122	 -390	 641	 left	 properTrial	 right	 1	 10.120
linesB	 71	 68	 12	 122	 -390	 638	 left	 properTrial	 right	 1	 10.120
linesB	 71	 68	 13	 210	 -302	 667	 left	 properTrial	 right	 1	 10.120
linesB	 71	 68	 14	 262	 -250	 667	 left	 properTrial	 right	 1	 10.120
linesB	 71	 68	 15	 450	 -62	 683	 left	 properTrial	 right	 1	 10.120
linesB	 71	 68	 16	 126	 -386	 408	 left	 properTrial	 right	 1	 10.120
linesB	 71	 68	 17	 213	 -299	 420	 left	 properTrial	 right	 1	 10.120
linesB	 71	 68	 18	 205	 -307	 397	 left	 properTrial	 right	 1	 10.120
linesB	 71	 68	 19	 239	 -273	 397	 left	 properTrial	 right	 1	 10.120
linesB	 71	 68	 20	 191	 -321	 393	 left	 properTrial	 right	 1	 10.120
linesB	 71	 68	 21	 211	 -301	 352	 left	 properTrial	 right	 1	 10.120
linesB	 71	 68	 22	 275	 -237	 346	 left	 properTrial	 right	 1	 10.120
linesB	 71	 68	 23	 317	 -195	 385	 left	 properTrial	 right	 1	 10.120
linesB	 71	 68	 24	 338	 -174	 318	 left	 properTrial	 right	 1	 10.120
linesB	 71	 68	 25	 227	 -285	 208	 left	 properTrial	 right	 1	 10.120
linesB	 71	 68	 26	 155	 -357	 172	 left	 properTrial	 right	 1	 10.120
linesB	 71	 68	 27	 335	 -177	 136	 left	 properTrial	 right	 1	 10.120
linesB	 71	 68	 28	 472	 -40	 97	 left	 properTrial	 right	 1	 10.120
linesB	 71	 68	 29	 253	 -259	 653	 left	 properTrial	 right	 1	 10.120
linesB	 71	 68	 30	 314	 -198	 656	 left	 properTrial	 right	 1	 10.120
linesB	 71	 68	 31	 301	 -211	 648	 left	 properTrial	 right	 1	 10.120
linesB	 71	 69	 1	 532	 20	 380	 absent	 properTrial	 right	 1	 15.743
linesB	 71	 69	 2	 357	 -155	 387	 absent	 properTrial	 right	 1	 15.743
linesB	 71	 69	 3	 348	 -164	 725	 absent	 properTrial	 right	 1	 15.743
linesB	 71	 69	 4	 368	 -144	 697	 absent	 properTrial	 right	 1	 15.743
linesB	 71	 69	 5	 367	 -145	 637	 absent	 properTrial	 right	 1	 15.743
linesB	 71	 69	 6	 522	 10	 616	 absent	 properTrial	 right	 1	 15.743
linesB	 71	 69	 7	 711	 199	 202	 absent	 properTrial	 right	 1	 15.743
linesB	 71	 69	 8	 459	 -53	 298	 absent	 properTrial	 right	 1	 15.743
linesB	 71	 69	 9	 479	 -33	 224	 absent	 properTrial	 right	 1	 15.743
linesB	 71	 69	 10	 513	 1	 157	 absent	 properTrial	 right	 1	 15.743
linesB	 71	 69	 11	 514	 2	 59	 absent	 properTrial	 right	 1	 15.743
linesB	 71	 69	 12	 303	 -209	 32	 absent	 properTrial	 right	 1	 15.743
linesB	 71	 69	 13	 358	 -154	 39	 absent	 properTrial	 right	 1	 15.743
linesB	 71	 69	 14	 120	 -392	 27	 absent	 properTrial	 right	 1	 15.743
linesB	 71	 69	 15	 166	 -346	 313	 absent	 properTrial	 right	 1	 15.743
linesB	 71	 69	 16	 227	 -285	 318	 absent	 properTrial	 right	 1	 15.743
linesB	 71	 69	 17	 277	 -235	 269	 absent	 properTrial	 right	 1	 15.743
linesB	 71	 69	 18	 325	 -187	 230	 absent	 properTrial	 right	 1	 15.743
linesB	 71	 69	 19	 379	 -133	 225	 absent	 properTrial	 right	 1	 15.743
linesB	 71	 69	 20	 426	 -86	 225	 absent	 properTrial	 right	 1	 15.743
linesB	 71	 69	 21	 405	 -107	 183	 absent	 properTrial	 right	 1	 15.743
linesB	 71	 69	 22	 215	 -297	 428	 absent	 properTrial	 right	 1	 15.743
linesB	 71	 69	 23	 198	 -314	 394	 absent	 properTrial	 right	 1	 15.743
linesB	 71	 69	 24	 243	 -269	 415	 absent	 properTrial	 right	 1	 15.743
linesB	 71	 69	 25	 308	 -204	 395	 absent	 properTrial	 right	 1	 15.743
linesB	 71	 69	 26	 258	 -254	 392	 absent	 properTrial	 right	 1	 15.743
linesB	 71	 69	 27	 388	 -124	 399	 absent	 properTrial	 right	 1	 15.743
linesB	 71	 69	 28	 274	 -238	 566	 absent	 properTrial	 right	 1	 15.743
linesB	 71	 69	 29	 335	 -177	 566	 absent	 properTrial	 right	 1	 15.743
linesB	 71	 69	 30	 365	 -147	 615	 absent	 properTrial	 right	 1	 15.743
linesB	 71	 69	 31	 192	 -320	 651	 absent	 properTrial	 right	 1	 15.743
linesB	 71	 69	 32	 241	 -271	 657	 absent	 properTrial	 right	 1	 15.743
linesB	 71	 69	 33	 106	 -406	 593	 absent	 properTrial	 right	 1	 15.743
linesB	 71	 69	 34	 144	 -368	 609	 absent	 properTrial	 right	 1	 15.743
linesB	 71	 69	 35	 452	 -60	 711	 absent	 properTrial	 right	 1	 15.743
linesB	 71	 69	 36	 500	 -12	 658	 absent	 properTrial	 right	 1	 15.743
linesB	 71	 69	 37	 70	 -442	 504	 absent	 properTrial	 right	 1	 15.743
linesB	 71	 69	 38	 50	 -462	 419	 absent	 properTrial	 right	 1	 15.743
linesB	 71	 69	 39	 49	 -463	 374	 absent	 properTrial	 right	 1	 15.743
linesB	 71	 69	 40	 41	 -471	 322	 absent	 properTrial	 right	 1	 15.743
linesB	 71	 69	 41	 42	 -470	 305	 absent	 properTrial	 right	 1	 15.743
linesB	 71	 69	 42	 39	 -473	 248	 absent	 properTrial	 right	 1	 15.743
linesB	 71	 69	 43	 31	 -481	 162	 absent	 properTrial	 right	 1	 15.743
linesB	 71	 69	 44	 23	 -489	 126	 absent	 properTrial	 right	 1	 15.743
linesB	 71	 69	 45	 38	 -474	 108	 absent	 properTrial	 right	 1	 15.743
linesB	 71	 69	 46	 421	 -91	 325	 absent	 properTrial	 right	 1	 15.743
linesB	 71	 69	 47	 440	 -72	 316	 absent	 properTrial	 right	 1	 15.743
linesB	 71	 69	 48	 502	 -10	 304	 absent	 properTrial	 right	 1	 15.743
linesB	 71	 69	 49	 486	 -26	 314	 absent	 properTrial	 right	 1	 15.743
linesB	 71	 69	 50	 480	 -32	 221	 absent	 properTrial	 right	 1	 15.743
linesB	 71	 69	 51	 524	 12	 245	 absent	 properTrial	 right	 1	 15.743
linesB	 71	 69	 52	 563	 51	 232	 absent	 properTrial	 right	 1	 15.743
linesB	 71	 69	 53	 495	 -17	 163	 absent	 properTrial	 right	 1	 15.743
linesB	 71	 70	 1	 542	 -30	 377	 right	 properTrial	 left	 0	 10.370
linesB	 71	 70	 2	 511	 1	 341	 right	 properTrial	 left	 0	 10.370
linesB	 71	 70	 3	 877	 -365	 288	 right	 properTrial	 left	 0	 10.370
linesB	 71	 70	 4	 980	 -468	 246	 right	 properTrial	 left	 0	 10.370
linesB	 71	 70	 5	 1000	 -488	 284	 right	 properTrial	 left	 0	 10.370
linesB	 71	 70	 6	 1032	 -520	 -15	 right	 properTrial	 left	 0	 10.370
linesB	 71	 70	 7	 593	 -81	 66	 right	 properTrial	 left	 0	 10.370
linesB	 71	 70	 8	 689	 -177	 30	 right	 properTrial	 left	 0	 10.370
linesB	 71	 70	 9	 359	 153	 129	 right	 properTrial	 left	 0	 10.370
linesB	 71	 70	 10	 705	 -193	 104	 right	 properTrial	 left	 0	 10.370
linesB	 71	 70	 11	 649	 -137	 62	 right	 properTrial	 left	 0	 10.370
linesB	 71	 70	 12	 920	 -408	 62	 right	 properTrial	 left	 0	 10.370
linesB	 71	 70	 13	 825	 -313	 63	 right	 properTrial	 left	 0	 10.370
linesB	 71	 70	 14	 911	 -399	 47	 right	 properTrial	 left	 0	 10.370
linesB	 71	 70	 15	 811	 -299	 122	 right	 properTrial	 left	 0	 10.370
linesB	 71	 70	 16	 866	 -354	 114	 right	 properTrial	 left	 0	 10.370
linesB	 71	 70	 17	 905	 -393	 153	 right	 properTrial	 left	 0	 10.370
linesB	 71	 70	 18	 887	 -375	 227	 right	 properTrial	 left	 0	 10.370
linesB	 71	 70	 19	 785	 -273	 225	 right	 properTrial	 left	 0	 10.370
linesB	 71	 70	 20	 835	 -323	 350	 right	 properTrial	 left	 0	 10.370
linesB	 71	 70	 21	 872	 -360	 367	 right	 properTrial	 left	 0	 10.370
linesB	 71	 70	 22	 936	 -424	 540	 right	 properTrial	 left	 0	 10.370
linesB	 71	 70	 23	 936	 -424	 616	 right	 properTrial	 left	 0	 10.370
linesB	 71	 70	 24	 865	 -353	 696	 right	 properTrial	 left	 0	 10.370
linesB	 71	 70	 25	 878	 -366	 696	 right	 properTrial	 left	 0	 10.370
linesB	 71	 70	 26	 713	 -201	 652	 right	 properTrial	 left	 0	 10.370
linesB	 71	 70	 27	 763	 -251	 654	 right	 properTrial	 left	 0	 10.370
linesB	 71	 70	 28	 771	 -259	 609	 right	 properTrial	 left	 0	 10.370
linesB	 71	 70	 29	 609	 -97	 607	 right	 properTrial	 left	 0	 10.370
linesB	 71	 70	 30	 644	 -132	 580	 right	 properTrial	 left	 0	 10.370
linesB	 71	 70	 31	 633	 -121	 450	 right	 properTrial	 left	 0	 10.370
linesB	 71	 70	 32	 513	 -1	 440	 right	 properTrial	 left	 0	 10.370
linesB	 71	 71	 1	 527	 15	 390	 left	 properTrial	 right	 0	 14.811
linesB	 71	 71	 2	 361	 -151	 396	 left	 properTrial	 right	 0	 14.811
linesB	 71	 71	 3	 627	 115	 363	 left	 properTrial	 right	 0	 14.811
linesB	 71	 71	 4	 393	 -119	 168	 left	 properTrial	 right	 0	 14.811
linesB	 71	 71	 5	 450	 -62	 165	 left	 properTrial	 right	 0	 14.811
linesB	 71	 71	 6	 515	 3	 181	 left	 properTrial	 right	 0	 14.811
linesB	 71	 71	 7	 515	 3	 264	 left	 properTrial	 right	 0	 14.811
linesB	 71	 71	 8	 524	 12	 141	 left	 properTrial	 right	 0	 14.811
linesB	 71	 71	 9	 517	 5	 52	 left	 properTrial	 right	 0	 14.811
linesB	 71	 71	 10	 505	 -7	 45	 left	 properTrial	 right	 0	 14.811
linesB	 71	 71	 11	 76	 -436	 81	 left	 properTrial	 right	 0	 14.811
linesB	 71	 71	 12	 64	 -448	 62	 left	 properTrial	 right	 0	 14.811
linesB	 71	 71	 13	 488	 -24	 628	 left	 properTrial	 right	 0	 14.811
linesB	 71	 71	 14	 504	 -8	 675	 left	 properTrial	 right	 0	 14.811
linesB	 71	 71	 15	 518	 6	 656	 left	 properTrial	 right	 0	 14.811
linesB	 71	 71	 16	 515	 3	 599	 left	 properTrial	 right	 0	 14.811
linesB	 71	 71	 17	 523	 11	 547	 left	 properTrial	 right	 0	 14.811
linesB	 71	 71	 18	 522	 10	 619	 left	 properTrial	 right	 0	 14.811
linesB	 71	 71	 19	 511	 -1	 526	 left	 properTrial	 right	 0	 14.811
linesB	 71	 71	 20	 427	 -85	 711	 left	 properTrial	 right	 0	 14.811
linesB	 71	 71	 21	 333	 -179	 686	 left	 properTrial	 right	 0	 14.811
linesB	 71	 71	 22	 348	 -164	 639	 left	 properTrial	 right	 0	 14.811
linesB	 71	 71	 23	 343	 -169	 600	 left	 properTrial	 right	 0	 14.811
linesB	 71	 71	 24	 139	 -373	 654	 left	 properTrial	 right	 0	 14.811
linesB	 71	 71	 25	 190	 -322	 646	 left	 properTrial	 right	 0	 14.811
linesB	 71	 71	 26	 195	 -317	 555	 left	 properTrial	 right	 0	 14.811
linesB	 71	 71	 27	 253	 -259	 551	 left	 properTrial	 right	 0	 14.811
linesB	 71	 71	 28	 266	 -246	 512	 left	 properTrial	 right	 0	 14.811
linesB	 71	 71	 29	 250	 -262	 469	 left	 properTrial	 right	 0	 14.811
linesB	 71	 71	 30	 441	 -71	 466	 left	 properTrial	 right	 0	 14.811
linesB	 71	 71	 31	 476	 -36	 483	 left	 properTrial	 right	 0	 14.811
linesB	 71	 71	 32	 459	 -53	 425	 left	 properTrial	 right	 0	 14.811
linesB	 71	 71	 33	 494	 -18	 396	 left	 properTrial	 right	 0	 14.811
linesB	 71	 71	 34	 492	 -20	 322	 left	 properTrial	 right	 0	 14.811
linesB	 71	 71	 35	 490	 -22	 298	 left	 properTrial	 right	 0	 14.811
linesB	 71	 71	 36	 475	 -37	 246	 left	 properTrial	 right	 0	 14.811
linesB	 71	 71	 37	 484	 -28	 210	 left	 properTrial	 right	 0	 14.811
linesB	 71	 71	 38	 497	 -15	 163	 left	 properTrial	 right	 0	 14.811
linesB	 71	 71	 39	 518	 6	 165	 left	 properTrial	 right	 0	 14.811
linesB	 71	 71	 40	 454	 -58	 156	 left	 properTrial	 right	 0	 14.811
linesB	 71	 71	 41	 174	 -338	 195	 left	 properTrial	 right	 0	 14.811
linesB	 71	 71	 42	 258	 -254	 186	 left	 properTrial	 right	 0	 14.811
linesB	 71	 71	 43	 260	 -252	 155	 left	 properTrial	 right	 0	 14.811
linesB	 71	 71	 44	 108	 -404	 466	 left	 properTrial	 right	 0	 14.811
linesB	 71	 71	 45	 159	 -353	 482	 left	 properTrial	 right	 0	 14.811
linesB	 71	 71	 46	 111	 -401	 481	 left	 properTrial	 right	 0	 14.811
linesB	 71	 71	 47	 180	 -332	 427	 left	 properTrial	 right	 0	 14.811
linesB	 71	 71	 48	 150	 -362	 376	 left	 properTrial	 right	 0	 14.811
linesB	 71	 71	 49	 224	 -288	 713	 left	 properTrial	 right	 0	 14.811
linesB	 71	 71	 50	 231	 -281	 658	 left	 properTrial	 right	 0	 14.811
linesB	 71	 71	 51	 288	 -224	 672	 left	 properTrial	 right	 0	 14.811
linesB	 71	 71	 52	 327	 -185	 508	 left	 properTrial	 right	 0	 14.811
linesB	 71	 71	 53	 129	 -383	 278	 left	 properTrial	 right	 0	 14.811
linesB	 71	 72	 1	 537	 -25	 394	 absent	 properTrial	 left	 1	 17.940
linesB	 71	 72	 2	 942	 -430	 306	 absent	 properTrial	 left	 1	 17.940
linesB	 71	 72	 3	 995	 -483	 245	 absent	 properTrial	 left	 1	 17.940
linesB	 71	 72	 4	 1021	 -509	 136	 absent	 properTrial	 left	 1	 17.940
linesB	 71	 72	 5	 953	 -441	 306	 absent	 properTrial	 left	 1	 17.940
linesB	 71	 72	 6	 942	 -430	 695	 absent	 properTrial	 left	 1	 17.940
linesB	 71	 72	 7	 926	 -414	 659	 absent	 properTrial	 left	 1	 17.940
linesB	 71	 72	 8	 933	 -421	 609	 absent	 properTrial	 left	 1	 17.940
linesB	 71	 72	 9	 929	 -417	 572	 absent	 properTrial	 left	 1	 17.940
linesB	 71	 72	 10	 972	 -460	 -1	 absent	 properTrial	 left	 1	 17.940
linesB	 71	 72	 11	 1022	 -510	 -2	 absent	 properTrial	 left	 1	 17.940
linesB	 71	 72	 12	 1029	 -517	 -10	 absent	 properTrial	 left	 1	 17.940
linesB	 71	 72	 13	 802	 -290	 46	 absent	 properTrial	 left	 1	 17.940
linesB	 71	 72	 14	 849	 -337	 54	 absent	 properTrial	 left	 1	 17.940
linesB	 71	 72	 15	 837	 -325	 107	 absent	 properTrial	 left	 1	 17.940
linesB	 71	 72	 16	 681	 -169	 72	 absent	 properTrial	 left	 1	 17.940
linesB	 71	 72	 17	 832	 -320	 58	 absent	 properTrial	 left	 1	 17.940
linesB	 71	 72	 18	 846	 -334	 52	 absent	 properTrial	 left	 1	 17.940
linesB	 71	 72	 19	 591	 -79	 129	 absent	 properTrial	 left	 1	 17.940
linesB	 71	 72	 20	 715	 -203	 400	 absent	 properTrial	 left	 1	 17.940
linesB	 71	 72	 21	 714	 -202	 243	 absent	 properTrial	 left	 1	 17.940
linesB	 71	 72	 22	 758	 -246	 236	 absent	 properTrial	 left	 1	 17.940
linesB	 71	 72	 23	 778	 -266	 383	 absent	 properTrial	 left	 1	 17.940
linesB	 71	 72	 24	 785	 -273	 364	 absent	 properTrial	 left	 1	 17.940
linesB	 71	 72	 25	 825	 -313	 357	 absent	 properTrial	 left	 1	 17.940
linesB	 71	 72	 26	 753	 -241	 613	 absent	 properTrial	 left	 1	 17.940
linesB	 71	 72	 27	 789	 -277	 625	 absent	 properTrial	 left	 1	 17.940
linesB	 71	 72	 28	 816	 -304	 600	 absent	 properTrial	 left	 1	 17.940
linesB	 71	 72	 29	 787	 -275	 538	 absent	 properTrial	 left	 1	 17.940
linesB	 71	 72	 30	 773	 -261	 526	 absent	 properTrial	 left	 1	 17.940
linesB	 71	 72	 31	 814	 -302	 489	 absent	 properTrial	 left	 1	 17.940
linesB	 71	 72	 32	 847	 -335	 674	 absent	 properTrial	 left	 1	 17.940
linesB	 71	 72	 33	 749	 -237	 657	 absent	 properTrial	 left	 1	 17.940
linesB	 71	 72	 34	 771	 -259	 663	 absent	 properTrial	 left	 1	 17.940
linesB	 71	 72	 35	 677	 -165	 613	 absent	 properTrial	 left	 1	 17.940
linesB	 71	 72	 36	 600	 -88	 722	 absent	 properTrial	 left	 1	 17.940
linesB	 71	 72	 37	 603	 -91	 683	 absent	 properTrial	 left	 1	 17.940
linesB	 71	 72	 38	 574	 -62	 530	 absent	 properTrial	 left	 1	 17.940
linesB	 71	 72	 39	 572	 -60	 401	 absent	 properTrial	 left	 1	 17.940
linesB	 71	 72	 40	 842	 -330	 437	 absent	 properTrial	 left	 1	 17.940
linesB	 71	 72	 41	 973	 -461	 426	 absent	 properTrial	 left	 1	 17.940
linesB	 71	 72	 42	 992	 -480	 432	 absent	 properTrial	 left	 1	 17.940
linesB	 71	 72	 43	 1000	 -488	 349	 absent	 properTrial	 left	 1	 17.940
linesB	 71	 72	 44	 1010	 -498	 245	 absent	 properTrial	 left	 1	 17.940
linesB	 71	 72	 45	 993	 -481	 316	 absent	 properTrial	 left	 1	 17.940
linesB	 71	 72	 46	 1012	 -500	 145	 absent	 properTrial	 left	 1	 17.940
linesB	 71	 72	 47	 1030	 -518	 123	 absent	 properTrial	 left	 1	 17.940
linesB	 71	 72	 48	 1069	 -557	 24	 absent	 properTrial	 left	 1	 17.940
linesB	 71	 72	 49	 599	 -87	 262	 absent	 properTrial	 left	 1	 17.940
linesB	 71	 72	 50	 485	 27	 306	 absent	 properTrial	 left	 1	 17.940
linesB	 71	 72	 51	 314	 198	 541	 absent	 properTrial	 left	 1	 17.940
linesB	 71	 72	 52	 383	 129	 699	 absent	 properTrial	 left	 1	 17.940
linesB	 71	 72	 53	 315	 197	 690	 absent	 properTrial	 left	 1	 17.940
linesB	 71	 72	 54	 499	 13	 375	 absent	 properTrial	 left	 1	 17.940
linesB	 71	 73	 1	 534	 22	 384	 right	 properTrial	 right	 1	 1.049
linesB	 71	 73	 2	 393	 -119	 242	 right	 properTrial	 right	 1	 1.049
linesB	 71	 73	 3	 668	 156	 81	 right	 properTrial	 right	 1	 1.049
linesB	 71	 73	 4	 657	 145	 78	 right	 properTrial	 right	 1	 1.049
linesB	 71	 74	 1	 537	 -25	 394	 right	 properTrial	 left	 1	 9.192
linesB	 71	 74	 2	 519	 -7	 318	 right	 properTrial	 left	 1	 9.192
linesB	 71	 74	 3	 588	 -76	 213	 right	 properTrial	 left	 1	 9.192
linesB	 71	 74	 4	 255	 257	 298	 right	 properTrial	 left	 1	 9.192
linesB	 71	 74	 5	 772	 -260	 124	 right	 properTrial	 left	 1	 9.192
linesB	 71	 74	 6	 846	 -334	 79	 right	 properTrial	 left	 1	 9.192
linesB	 71	 74	 7	 1037	 -525	 9	 right	 properTrial	 left	 1	 9.192
linesB	 71	 74	 8	 632	 -120	 156	 right	 properTrial	 left	 1	 9.192
linesB	 71	 74	 9	 709	 -197	 152	 right	 properTrial	 left	 1	 9.192
linesB	 71	 74	 10	 763	 -251	 631	 right	 properTrial	 left	 1	 9.192
linesB	 71	 74	 11	 802	 -290	 657	 right	 properTrial	 left	 1	 9.192
linesB	 71	 74	 12	 771	 -259	 653	 right	 properTrial	 left	 1	 9.192
linesB	 71	 74	 13	 802	 -290	 619	 right	 properTrial	 left	 1	 9.192
linesB	 71	 74	 14	 763	 -251	 711	 right	 properTrial	 left	 1	 9.192
linesB	 71	 74	 15	 917	 -405	 703	 right	 properTrial	 left	 1	 9.192
linesB	 71	 74	 16	 939	 -427	 635	 right	 properTrial	 left	 1	 9.192
