"condition","subject","trialNum","targSide","RT","accuracy"
"1","linesB","1",17,"absent",2.122,1
"2","linesB","1",18,"absent",4.414,1
"3","linesB","1",19,"easy",1.154,0
"4","linesB","1",20,"hard",4.699,0
"5","linesB","1",21,"hard",5.774,1
"6","linesB","1",22,"absent",8.267,1
"7","linesB","1",23,"easy",2.657,1
"8","linesB","1",24,"hard",4.162,1
"9","linesB","1",25,"absent",2.677,0
"10","linesB","1",26,"hard",3.428,1
"11","linesB","1",27,"absent",2.485,0
"12","linesB","1",28,"easy",1.117,1
"13","linesB","1",29,"absent",2.685,0
"14","linesB","1",30,"easy",0.988,1
"15","linesB","1",31,"absent",3.243,0
"16","linesB","1",32,"absent",9.866,1
"17","linesB","1",33,"absent",7.014,0
"18","linesB","1",34,"easy",1.511,1
"19","linesB","1",35,"hard",5.919,0
"20","linesB","1",36,"hard",6.528,0
"21","linesB","1",37,"absent",2.261,0
"22","linesB","1",38,"absent",8.198,1
"23","linesB","1",39,"absent",3.375,1
"24","linesB","1",40,"easy",7.309,1
"25","linesB","1",41,"absent",6.068,1
"26","linesB","1",42,"hard",4.851,0
"27","linesB","1",43,"absent",7.56,1
"28","linesB","1",44,"absent",6.723,0
"29","linesB","1",45,"hard",4.502,1
"30","linesB","1",46,"absent",13.184,1
"31","linesB","1",47,"easy",3.927,1
"32","linesB","1",48,"hard",7.292,1
"33","linesB","1",49,"absent",8.425,0
"34","linesB","1",50,"hard",1.814,1
"35","linesB","1",51,"absent",8.78,0
"36","linesB","1",52,"absent",7.768,0
"37","linesB","1",53,"absent",2.588,0
"38","linesB","1",54,"easy",1.407,1
"39","linesB","1",55,"easy",1.197,1
"40","linesB","1",56,"hard",9.166,1
"41","linesB","1",57,"easy",1.397,1
"42","linesB","1",58,"absent",12.911,1
"43","linesB","1",59,"absent",8.331,0
"44","linesB","1",60,"absent",9.404,1
"45","linesB","1",61,"easy",1.011,0
"46","linesB","1",62,"easy",1.063,1
"47","linesB","1",63,"hard",2.809,1
"48","linesB","1",64,"absent",9.35,1
"49","linesB","1",65,"hard",6.742,0
"50","linesB","1",66,"absent",8.474,1
"51","linesB","1",67,"easy",1.108,1
"52","linesB","1",68,"absent",8.808,1
"53","linesB","1",69,"absent",9.662,1
"54","linesB","1",70,"absent",4.838,0
"55","linesB","1",71,"absent",12.42,1
"56","linesB","1",72,"hard",5.914,1
"57","linesB","1",73,"absent",12.456,1
"58","linesB","1",74,"absent",8.998,1
"59","linesB","1",75,"easy",1.658,1
"60","linesB","1",76,"easy",0.858,1
"61","linesB","1",77,"hard",10.804,1
"62","linesB","1",78,"hard",12.761,1
"63","linesB","1",79,"absent",8.001,0
"64","linesB","1",80,"easy",1.023,1
"65","linesB","1",81,"hard",9.886,0
"66","linesB","1",82,"hard",10.456,0
"67","linesB","1",83,"absent",16.509,1
"68","linesB","1",84,"easy",1.246,1
"69","linesB","1",85,"easy",1.025,1
"70","linesB","1",86,"absent",7.936,1
"71","linesB","1",87,"absent",9.265,1
"72","linesB","1",88,"absent",12.364,1
"73","linesB","1",89,"absent",8.055,1
"74","linesB","1",90,"hard",4.29,0
"75","linesB","1",91,"easy",2.398,1
"76","linesB","1",92,"hard",14.348,0
"77","linesB","1",93,"hard",4.003,1
"78","linesB","1",94,"absent",14.259,1
"79","linesB","1",95,"absent",2.25,0
"80","linesB","1",96,"absent",10.861,1
"81","linesB","1",97,"easy",1.077,1
"82","linesB","1",98,"hard",4.106,1
"83","linesB","1",99,"easy",1.003,1
"84","linesB","1",100,"easy",0.878,1
"85","linesB","1",101,"hard",4.609,1
"86","linesB","1",102,"absent",10.874,1
"87","linesB","1",103,"hard",7.626,1
"88","linesB","1",104,"absent",11.333,1
"89","linesB","1",105,"easy",1.004,1
"90","linesB","1",106,"absent",8.266,1
"91","linesB","1",107,"absent",9.669,1
"92","linesB","1",108,"absent",13.158,1
"93","linesB","1",109,"easy",1.127,1
"94","linesB","1",110,"absent",14.156,1
"95","linesB","1",111,"absent",6.467,1
"96","linesB","1",112,"absent",8.537,1
"97","linesB","2",17,"easy",1.493,1
"98","linesB","2",18,"hard",8.317,0
"99","linesB","2",19,"easy",6.727,1
"100","linesB","2",20,"hard",11.401,0
"101","linesB","2",21,"easy",1.384,1
"102","linesB","2",22,"absent",9.623,1
"103","linesB","2",23,"absent",14.057,1
"104","linesB","2",24,"easy",1.17,1
"105","linesB","2",25,"hard",6.007,1
"106","linesB","2",26,"absent",12.551,1
"107","linesB","2",27,"absent",13.119,1
"108","linesB","2",28,"absent",14.181,1
"109","linesB","2",29,"absent",15.023,0
"110","linesB","2",30,"absent",10.275,1
"111","linesB","2",31,"easy",1.082,1
"112","linesB","2",32,"absent",9.266,1
"113","linesB","2",33,"hard",6.403,0
"114","linesB","2",34,"easy",0.814,1
"115","linesB","2",35,"absent",9.529,0
"116","linesB","2",36,"absent",10.255,1
"117","linesB","2",37,"absent",6.503,1
"118","linesB","2",38,"absent",5.738,1
"119","linesB","2",39,"hard",8.766,0
"120","linesB","2",40,"hard",10.197,0
"121","linesB","2",41,"absent",8.761,1
"122","linesB","2",42,"absent",9.17,0
"123","linesB","2",43,"absent",6.858,1
"124","linesB","2",44,"absent",8.623,0
"125","linesB","2",45,"easy",9.486,0
"126","linesB","2",46,"easy",0.904,1
"127","linesB","2",47,"hard",10.331,0
"128","linesB","2",48,"absent",3.437,0
"129","linesB","2",49,"easy",0.781,1
"130","linesB","2",50,"absent",9.994,1
"131","linesB","2",51,"absent",9.701,1
"132","linesB","2",52,"easy",1.081,1
"133","linesB","2",53,"absent",11.728,1
"134","linesB","2",54,"hard",6.313,1
"135","linesB","2",55,"absent",8.054,0
"136","linesB","2",56,"absent",13.765,1
"137","linesB","2",57,"hard",4.303,1
"138","linesB","2",58,"easy",0.925,1
"139","linesB","2",59,"hard",8.712,0
"140","linesB","2",60,"hard",10.596,1
"141","linesB","2",61,"absent",7.717,0
"142","linesB","2",62,"easy",0.794,1
"143","linesB","2",63,"hard",3.161,1
"144","linesB","2",64,"absent",2.317,0
"145","linesB","2",65,"absent",6.188,0
"146","linesB","2",66,"easy",0.774,1
"147","linesB","2",67,"absent",13.722,1
"148","linesB","2",68,"hard",13.003,0
"149","linesB","2",69,"absent",14.571,1
"150","linesB","2",70,"hard",14.434,0
"151","linesB","2",71,"hard",10.961,1
"152","linesB","2",72,"absent",14.455,1
"153","linesB","2",73,"easy",0.99,1
"154","linesB","2",74,"hard",11.458,0
"155","linesB","2",75,"absent",13.623,1
"156","linesB","2",76,"easy",0.714,1
"157","linesB","2",77,"absent",10.261,1
"158","linesB","2",78,"hard",6.194,0
"159","linesB","2",79,"absent",10.577,0
"160","linesB","2",80,"absent",9.445,1
"161","linesB","2",81,"absent",7.881,1
"162","linesB","2",82,"absent",11.338,1
"163","linesB","2",83,"easy",0.995,1
"164","linesB","2",84,"easy",0.937,1
"165","linesB","2",85,"absent",10.816,1
"166","linesB","2",86,"easy",0.741,1
"167","linesB","2",87,"absent",9.744,1
"168","linesB","2",88,"hard",6.074,1
"169","linesB","2",89,"easy",0.996,1
"170","linesB","2",90,"easy",0.613,1
"171","linesB","2",91,"absent",7.932,1
"172","linesB","2",92,"easy",0.775,1
"173","linesB","2",93,"absent",7.366,1
"174","linesB","2",94,"hard",6.619,0
"175","linesB","2",95,"hard",7.89,0
"176","linesB","2",96,"absent",6.141,0
"177","linesB","2",97,"absent",9.235,1
"178","linesB","2",98,"absent",10.222,1
"179","linesB","2",99,"absent",11.715,1
"180","linesB","2",100,"hard",14.284,0
"181","linesB","2",101,"absent",10.16,1
"182","linesB","2",102,"hard",8.334,0
"183","linesB","2",103,"absent",10.253,1
"184","linesB","2",104,"hard",11.764,0
"185","linesB","2",105,"easy",0.709,1
"186","linesB","2",106,"absent",9.575,1
"187","linesB","2",107,"easy",0.582,1
"188","linesB","2",108,"hard",4.498,1
"189","linesB","2",109,"absent",7.008,1
"190","linesB","2",110,"absent",10.198,1
"191","linesB","2",111,"easy",0.671,1
"192","linesB","2",112,"absent",11.033,1
"193","linesB","3",17,"easy",0.902,1
"194","linesB","3",18,"hard",5.547,0
"195","linesB","3",19,"easy",0.953,1
"196","linesB","3",20,"hard",6.409,0
"197","linesB","3",21,"easy",0.948,1
"198","linesB","3",22,"absent",7.193,1
"199","linesB","3",23,"absent",8.535,1
"200","linesB","3",24,"easy",1.518,1
"201","linesB","3",25,"hard",9.277,0
"202","linesB","3",26,"absent",11.529,1
"203","linesB","3",27,"absent",7.452,1
"204","linesB","3",28,"absent",8.579,1
"205","linesB","3",29,"absent",11.518,1
"206","linesB","3",30,"absent",8.641,1
"207","linesB","3",31,"easy",1.274,1
"208","linesB","3",32,"absent",8.53,1
"209","linesB","3",33,"hard",11.926,1
"210","linesB","3",34,"easy",1.11,1
"211","linesB","3",35,"absent",12.597,1
"212","linesB","3",36,"absent",10.762,1
"213","linesB","3",37,"absent",8.021,0
"214","linesB","3",38,"absent",12.105,1
"215","linesB","3",39,"hard",9.359,0
"216","linesB","3",40,"hard",4.978,0
"217","linesB","3",41,"absent",5.201,1
"218","linesB","3",42,"absent",5.839,0
"219","linesB","3",43,"absent",10.553,1
"220","linesB","3",44,"absent",7.424,1
"221","linesB","3",45,"easy",1.584,1
"222","linesB","3",46,"easy",1.142,1
"223","linesB","3",47,"hard",10.651,0
"224","linesB","3",48,"absent",10.603,1
"225","linesB","3",49,"easy",0.709,1
"226","linesB","3",50,"absent",9.57,1
"227","linesB","3",51,"absent",5.74,1
"228","linesB","3",52,"easy",0.823,1
"229","linesB","3",53,"absent",7.704,1
"230","linesB","3",54,"hard",9.347,0
"231","linesB","3",55,"absent",7.701,0
"232","linesB","3",56,"absent",7.638,1
"233","linesB","3",57,"hard",9.108,0
"234","linesB","3",58,"easy",0.945,1
"235","linesB","3",59,"hard",10.32,0
"236","linesB","3",60,"hard",10.778,0
"237","linesB","3",61,"absent",9.414,1
"238","linesB","3",62,"easy",0.953,1
"239","linesB","3",63,"hard",7.379,0
"240","linesB","3",64,"absent",9.833,1
"241","linesB","3",65,"absent",9.291,1
"242","linesB","3",66,"easy",1.275,1
"243","linesB","3",67,"absent",11.413,1
"244","linesB","3",68,"hard",10.269,0
"245","linesB","3",69,"absent",5.697,1
"246","linesB","3",70,"hard",6.974,1
"247","linesB","3",71,"hard",7.815,0
"248","linesB","3",72,"absent",8.335,1
"249","linesB","3",73,"easy",1.184,1
"250","linesB","3",74,"hard",9.222,1
"251","linesB","3",75,"absent",9.225,0
"252","linesB","3",76,"easy",0.943,1
"253","linesB","3",77,"absent",7.042,0
"254","linesB","3",78,"hard",3.537,1
"255","linesB","3",79,"absent",9.187,1
"256","linesB","3",80,"absent",10.895,1
"257","linesB","3",81,"absent",10.566,1
"258","linesB","3",82,"absent",11.479,1
"259","linesB","3",83,"easy",0.889,1
"260","linesB","3",84,"easy",1.037,1
"261","linesB","3",85,"absent",13.785,1
"262","linesB","3",86,"easy",0.704,1
"263","linesB","3",87,"absent",6.415,1
"264","linesB","3",88,"hard",8.291,0
"265","linesB","3",89,"easy",0.703,1
"266","linesB","3",90,"easy",0.556,1
"267","linesB","3",91,"absent",9.31,1
"268","linesB","3",92,"easy",0.763,1
"269","linesB","3",93,"absent",9.793,1
"270","linesB","3",94,"hard",7.993,0
"271","linesB","3",95,"hard",2.774,1
"272","linesB","3",96,"absent",10.338,1
"273","linesB","3",97,"absent",8.397,1
"274","linesB","3",98,"absent",9.737,1
"275","linesB","3",99,"absent",9.765,1
"276","linesB","3",100,"hard",5.386,0
"277","linesB","3",101,"absent",8.222,1
"278","linesB","3",102,"hard",6.814,0
"279","linesB","3",103,"absent",10.766,1
"280","linesB","3",104,"hard",10.083,0
"281","linesB","3",105,"easy",0.722,1
"282","linesB","3",106,"absent",8.383,1
"283","linesB","3",107,"easy",0.735,1
"284","linesB","3",108,"hard",7.139,0
"285","linesB","3",109,"absent",6.643,1
"286","linesB","3",110,"absent",6.851,1
"287","linesB","3",111,"easy",0.736,1
"288","linesB","3",112,"absent",6.555,0
"289","linesB","4",17,"absent",6.418,1
"290","linesB","4",18,"hard",6.989,0
"291","linesB","4",19,"absent",11.803,1
"292","linesB","4",20,"absent",15.117,1
"293","linesB","4",21,"absent",18.453,1
"294","linesB","4",22,"hard",22.287,0
"295","linesB","4",23,"absent",17.024,1
"296","linesB","4",24,"hard",23.098,0
"297","linesB","4",25,"absent",19.43,0
"298","linesB","4",26,"easy",29.47,0
"299","linesB","4",27,"absent",27.696,1
"300","linesB","4",28,"hard",23.174,0
"301","linesB","4",29,"easy",4.128,1
"302","linesB","4",30,"absent",13.692,1
"303","linesB","4",31,"easy",1.002,1
"304","linesB","4",32,"hard",8.705,0
"305","linesB","4",33,"easy",0.92,1
"306","linesB","4",34,"easy",0.945,1
"307","linesB","4",35,"absent",11.56,1
"308","linesB","4",36,"absent",5.017,0
"309","linesB","4",37,"hard",8.73,0
"310","linesB","4",38,"easy",1.015,1
"311","linesB","4",39,"absent",11.039,1
"312","linesB","4",40,"absent",7.672,1
"313","linesB","4",41,"easy",2.929,1
"314","linesB","4",42,"absent",4.913,1
"315","linesB","4",43,"absent",7.518,1
"316","linesB","4",44,"absent",7.622,1
"317","linesB","4",45,"absent",12.066,1
"318","linesB","4",46,"hard",4.087,1
"319","linesB","4",47,"easy",1.024,1
"320","linesB","4",48,"easy",2.022,1
"321","linesB","4",49,"hard",8.674,0
"322","linesB","4",50,"absent",12.916,1
"323","linesB","4",51,"absent",6.028,1
"324","linesB","4",52,"absent",9.187,1
"325","linesB","4",53,"easy",0.821,1
"326","linesB","4",54,"easy",0.773,1
"327","linesB","4",55,"absent",7.148,1
"328","linesB","4",56,"hard",5.686,0
"329","linesB","4",57,"absent",10.302,1
"330","linesB","4",58,"hard",9.943,0
"331","linesB","4",59,"absent",11.978,1
"332","linesB","4",60,"hard",11.953,0
"333","linesB","4",61,"easy",0.948,1
"334","linesB","4",62,"hard",12.195,0
"335","linesB","4",63,"absent",12.519,1
"336","linesB","4",64,"absent",10.688,1
"337","linesB","4",65,"easy",0.935,1
"338","linesB","4",66,"easy",1.497,1
"339","linesB","4",67,"hard",2.969,0
"340","linesB","4",68,"hard",2.99,0
"341","linesB","4",69,"hard",6.904,0
"342","linesB","4",70,"easy",1.153,1
"343","linesB","4",71,"hard",9.517,0
"344","linesB","4",72,"absent",19.688,1
"345","linesB","4",73,"absent",8.999,1
"346","linesB","4",74,"absent",7.192,1
"347","linesB","4",75,"absent",7.643,1
"348","linesB","4",76,"absent",8.837,1
"349","linesB","4",77,"absent",9.048,1
"350","linesB","4",78,"absent",8.996,1
"351","linesB","4",79,"absent",6.748,1
"352","linesB","4",80,"absent",8.661,1
"353","linesB","4",81,"easy",0.727,1
"354","linesB","4",82,"hard",3.87,1
"355","linesB","4",83,"absent",9.801,1
"356","linesB","4",84,"hard",5.271,0
"357","linesB","4",85,"easy",0.819,1
"358","linesB","4",86,"absent",8.73,1
"359","linesB","4",87,"easy",0.685,1
"360","linesB","4",88,"absent",7.711,1
"361","linesB","4",89,"absent",2.953,1
"362","linesB","4",90,"absent",4.721,1
"363","linesB","4",91,"absent",7.365,1
"364","linesB","4",92,"absent",4.906,1
"365","linesB","4",93,"easy",0.883,1
"366","linesB","4",94,"easy",0.798,0
"367","linesB","4",95,"absent",9.193,1
"368","linesB","4",96,"easy",0.937,1
"369","linesB","4",97,"hard",7.82,0
"370","linesB","4",98,"hard",5.009,0
"371","linesB","4",99,"hard",9.449,0
"372","linesB","4",100,"absent",20.931,1
"373","linesB","4",101,"hard",16.079,0
"374","linesB","4",102,"absent",15.933,1
"375","linesB","4",103,"easy",0.896,1
"376","linesB","4",104,"hard",12.976,1
"377","linesB","4",105,"easy",0.804,1
"378","linesB","4",106,"absent",15.679,1
"379","linesB","4",107,"hard",12.116,0
"380","linesB","4",108,"absent",20.036,1
"381","linesB","4",109,"absent",17.477,1
"382","linesB","4",110,"easy",1.197,1
"383","linesB","4",111,"absent",11.87,1
"384","linesB","4",112,"absent",13.05,1
"385","linesB","5",17,"easy",1.55,1
"386","linesB","5",18,"hard",15.591,0
"387","linesB","5",19,"easy",5.686,1
"388","linesB","5",20,"hard",7.898,0
"389","linesB","5",21,"easy",1.129,1
"390","linesB","5",22,"absent",11.079,0
"391","linesB","5",23,"absent",15.531,1
"392","linesB","5",24,"easy",2.961,1
"393","linesB","5",25,"hard",5.531,1
"394","linesB","5",26,"absent",14.909,1
"395","linesB","5",27,"absent",9.779,1
"396","linesB","5",28,"absent",12.067,1
"397","linesB","5",29,"absent",11.983,1
"398","linesB","5",30,"absent",11.499,1
"399","linesB","5",31,"easy",0.949,1
"400","linesB","5",32,"absent",11.938,1
"401","linesB","5",33,"hard",11.321,0
"402","linesB","5",34,"easy",1.023,1
"403","linesB","5",35,"absent",12.398,1
"404","linesB","5",36,"absent",11.125,1
"405","linesB","5",37,"absent",14.03,1
"406","linesB","5",38,"absent",11.339,1
"407","linesB","5",39,"hard",2.791,1
"408","linesB","5",40,"hard",11.499,0
"409","linesB","5",41,"absent",13.383,1
"410","linesB","5",42,"absent",12.305,1
"411","linesB","5",43,"absent",7.535,1
"412","linesB","5",44,"absent",11.027,1
"413","linesB","5",45,"easy",13.159,0
"414","linesB","5",46,"easy",1.26,1
"415","linesB","5",47,"hard",16.779,0
"416","linesB","5",48,"absent",12.615,1
"417","linesB","5",49,"easy",1.177,1
"418","linesB","5",50,"absent",16.359,1
"419","linesB","5",51,"absent",13.571,1
"420","linesB","5",52,"easy",1.235,1
"421","linesB","5",53,"absent",10.95,1
"422","linesB","5",54,"hard",8.994,0
"423","linesB","5",55,"absent",14.571,1
"424","linesB","5",56,"absent",10.859,1
"425","linesB","5",57,"hard",11.936,0
"426","linesB","5",58,"easy",1.582,1
"427","linesB","5",59,"hard",15.919,0
"428","linesB","5",60,"hard",20.852,0
"429","linesB","5",61,"absent",31.588,1
"430","linesB","5",62,"easy",1.347,1
"431","linesB","5",63,"hard",21.998,0
"432","linesB","5",64,"absent",22.28,1
"433","linesB","5",65,"absent",10.143,1
"434","linesB","5",66,"easy",0.999,1
"435","linesB","5",67,"absent",7.049,1
"436","linesB","5",68,"hard",10.468,0
"437","linesB","5",69,"absent",15.421,1
"438","linesB","5",70,"hard",15.429,0
"439","linesB","5",71,"hard",12.486,1
"440","linesB","5",72,"absent",18.227,1
"441","linesB","5",73,"easy",1.591,1
"442","linesB","5",74,"hard",10.963,0
"443","linesB","5",75,"absent",11.817,1
"444","linesB","5",76,"easy",1.032,1
"445","linesB","5",77,"absent",20.576,1
"446","linesB","5",78,"hard",10.928,1
"447","linesB","5",79,"absent",11.098,1
"448","linesB","5",80,"absent",8.932,1
"449","linesB","5",81,"absent",11.879,1
"450","linesB","5",82,"absent",7.477,1
"451","linesB","5",83,"easy",0.849,1
"452","linesB","5",84,"easy",1.092,1
"453","linesB","5",85,"absent",9.194,1
"454","linesB","5",86,"easy",1.091,1
"455","linesB","5",87,"absent",5.556,1
"456","linesB","5",88,"hard",7.932,0
"457","linesB","5",89,"easy",0.939,1
"458","linesB","5",90,"easy",0.915,1
"459","linesB","5",91,"absent",9.419,1
"460","linesB","5",92,"easy",0.759,1
"461","linesB","5",93,"absent",7.655,1
"462","linesB","5",94,"hard",5.846,0
"463","linesB","5",95,"hard",1.731,1
"464","linesB","5",96,"absent",11.991,1
"465","linesB","5",97,"absent",10.286,1
"466","linesB","5",98,"absent",7.122,1
"467","linesB","5",99,"absent",9.016,1
"468","linesB","5",100,"hard",5.178,1
"469","linesB","5",101,"absent",5.457,1
"470","linesB","5",102,"hard",9.338,0
"471","linesB","5",103,"absent",10.277,1
"472","linesB","5",104,"hard",6.967,0
"473","linesB","5",105,"easy",0.776,1
"474","linesB","5",106,"absent",16.187,1
"475","linesB","5",107,"easy",0.93,1
"476","linesB","5",108,"hard",6.22,0
"477","linesB","5",109,"absent",10.881,1
"478","linesB","5",110,"absent",12.885,1
"479","linesB","5",111,"easy",0.81,1
"480","linesB","5",112,"absent",6.057,1
"481","linesB","11",17,"easy",1.425,1
"482","linesB","11",18,"hard",8.481,0
"483","linesB","11",19,"easy",1.144,1
"484","linesB","11",20,"hard",5.818,1
"485","linesB","11",21,"easy",1.012,1
"486","linesB","11",22,"absent",20.416,1
"487","linesB","11",23,"absent",10.902,1
"488","linesB","11",24,"easy",1.622,1
"489","linesB","11",25,"hard",2.96,1
"490","linesB","11",26,"absent",16.6,1
"491","linesB","11",27,"absent",20.68,1
"492","linesB","11",28,"absent",13.433,1
"493","linesB","11",29,"absent",7.569,1
"494","linesB","11",30,"absent",12.92,1
"495","linesB","11",31,"easy",1.245,1
"496","linesB","11",32,"absent",11.656,1
"497","linesB","11",33,"hard",8.487,0
"498","linesB","11",34,"easy",1.217,1
"499","linesB","11",35,"absent",15.735,1
"500","linesB","11",36,"absent",16.419,1
"501","linesB","11",37,"absent",18.483,1
"502","linesB","11",38,"absent",17.13,1
"503","linesB","11",39,"hard",13.041,1
"504","linesB","11",40,"hard",22.802,0
"505","linesB","11",41,"absent",16.245,1
"506","linesB","11",42,"absent",17.064,1
"507","linesB","11",43,"absent",17.475,1
"508","linesB","11",44,"absent",15.304,1
"509","linesB","11",45,"easy",3.897,1
"510","linesB","11",46,"easy",1.02,1
"511","linesB","11",47,"hard",4.231,1
"512","linesB","11",48,"absent",13.613,1
"513","linesB","11",49,"easy",0.759,1
"514","linesB","11",50,"absent",23.275,1
"515","linesB","11",51,"absent",11.376,1
"516","linesB","11",52,"easy",0.782,1
"517","linesB","11",53,"absent",7.525,1
"518","linesB","11",54,"hard",7.281,0
"519","linesB","11",55,"absent",20.238,1
"520","linesB","11",56,"absent",21.101,1
"521","linesB","11",57,"hard",22.619,0
"522","linesB","11",58,"easy",1.185,1
"523","linesB","11",59,"hard",37.996,0
"524","linesB","11",60,"hard",3.221,1
"525","linesB","11",61,"absent",46.953,1
"526","linesB","11",62,"easy",1.031,1
"527","linesB","11",63,"hard",22.725,1
"528","linesB","11",64,"absent",39.21,1
"529","linesB","11",65,"absent",17.343,1
"530","linesB","11",66,"easy",0.794,1
"531","linesB","11",67,"absent",33.158,1
"532","linesB","11",68,"hard",4.118,1
"533","linesB","11",69,"absent",15.912,1
"534","linesB","11",70,"hard",3.384,1
"535","linesB","11",71,"hard",5.901,1
"536","linesB","11",72,"absent",24.868,1
"537","linesB","11",73,"easy",0.863,1
"538","linesB","11",74,"hard",3.921,1
"539","linesB","11",75,"absent",25.761,1
"540","linesB","11",76,"easy",0.666,1
"541","linesB","11",77,"absent",41.172,1
"542","linesB","11",78,"hard",24.401,0
"543","linesB","11",79,"absent",47.585,1
"544","linesB","11",80,"absent",37.958,1
"545","linesB","11",81,"absent",42.271,1
"546","linesB","11",82,"absent",35.483,1
"547","linesB","11",83,"easy",1.079,1
"548","linesB","11",84,"easy",0.78,1
"549","linesB","11",85,"absent",28.283,1
"550","linesB","11",86,"easy",0.76,1
"551","linesB","11",87,"absent",24.83,1
"552","linesB","11",88,"hard",3.555,1
"553","linesB","11",89,"easy",1.105,1
"554","linesB","11",90,"easy",0.678,1
"555","linesB","11",91,"absent",30.419,1
"556","linesB","11",92,"easy",0.755,1
"557","linesB","11",93,"absent",37.404,1
"558","linesB","11",94,"hard",29.813,0
"559","linesB","11",95,"hard",43.231,0
"560","linesB","11",96,"absent",51.01,1
"561","linesB","11",97,"absent",56.816,1
"562","linesB","11",98,"absent",49.172,1
"563","linesB","11",99,"absent",43.493,1
"564","linesB","11",100,"hard",46.26,0
"565","linesB","11",101,"absent",35.126,1
"566","linesB","11",102,"hard",58.095,0
"567","linesB","11",103,"absent",57.259,1
"568","linesB","11",104,"hard",29.636,1
"569","linesB","11",105,"easy",1.113,1
"570","linesB","11",106,"absent",60.971,1
"571","linesB","11",107,"easy",0.842,1
"572","linesB","11",108,"hard",9.34,1
"573","linesB","11",109,"absent",76.912,1
"574","linesB","11",110,"absent",33.602,1
"575","linesB","11",111,"easy",1.162,1
"576","linesB","11",112,"absent",80.007,1
"577","linesB","12",17,"easy",27.538,1
"578","linesB","12",18,"hard",10.26,0
"579","linesB","12",19,"easy",1.095,1
"580","linesB","12",20,"hard",14.109,0
"581","linesB","12",21,"easy",1.08,1
"582","linesB","12",22,"absent",31.45,1
"583","linesB","12",23,"absent",24.213,1
"584","linesB","12",24,"easy",1.964,1
"585","linesB","12",25,"hard",28.795,0
"586","linesB","12",26,"absent",32.483,1
"587","linesB","12",27,"absent",36.042,1
"588","linesB","12",28,"absent",57.215,1
"589","linesB","12",29,"absent",35.378,1
"590","linesB","12",30,"absent",40.371,1
"591","linesB","12",31,"easy",4.08,1
"592","linesB","12",32,"absent",24.016,1
"593","linesB","12",33,"hard",17.926,1
"594","linesB","12",34,"easy",1.052,1
"595","linesB","12",35,"absent",25.739,1
"596","linesB","12",36,"absent",31.412,1
"597","linesB","12",37,"absent",25.846,1
"598","linesB","12",38,"absent",31.89,1
"599","linesB","12",39,"hard",6.529,1
"600","linesB","12",40,"hard",12.69,0
"601","linesB","12",41,"absent",28.043,1
"602","linesB","12",42,"absent",26.082,1
"603","linesB","12",43,"absent",30.42,1
"604","linesB","12",44,"absent",27.695,1
"605","linesB","12",45,"easy",1.672,1
"606","linesB","12",46,"easy",1.043,1
"607","linesB","12",47,"hard",28.579,1
"608","linesB","12",48,"absent",25.369,1
"609","linesB","12",49,"easy",0.812,1
"610","linesB","12",50,"absent",24.463,1
"611","linesB","12",51,"absent",34.658,1
"612","linesB","12",52,"easy",0.84,1
"613","linesB","12",53,"absent",33.727,1
"614","linesB","12",54,"hard",16.314,1
"615","linesB","12",55,"absent",27.085,1
"616","linesB","12",56,"absent",27.848,1
"617","linesB","12",57,"hard",22.648,1
"618","linesB","12",58,"easy",1.379,1
"619","linesB","12",59,"hard",37.371,1
"620","linesB","12",60,"hard",26.573,1
"621","linesB","12",61,"absent",28.802,1
"622","linesB","12",62,"easy",0.901,1
"623","linesB","12",63,"hard",50.653,0
"624","linesB","12",64,"absent",44.8,1
"625","linesB","12",65,"absent",38.567,1
"626","linesB","12",66,"easy",0.778,1
"627","linesB","12",67,"absent",28.299,1
"628","linesB","12",68,"hard",35.228,1
"629","linesB","12",69,"absent",36.884,1
"630","linesB","12",70,"hard",5.74,1
"631","linesB","12",71,"hard",14.986,1
"632","linesB","12",72,"absent",22.835,1
"633","linesB","12",73,"easy",0.955,1
"634","linesB","12",74,"hard",16.519,1
"635","linesB","12",75,"absent",43.722,1
"636","linesB","12",76,"easy",0.855,1
"637","linesB","12",77,"absent",29.629,1
"638","linesB","12",78,"hard",14.943,1
"639","linesB","12",79,"absent",29.56,1
"640","linesB","12",80,"absent",35.158,1
"641","linesB","12",81,"absent",32.02,1
"642","linesB","12",82,"absent",31.377,1
"643","linesB","12",83,"easy",0.818,1
"644","linesB","12",84,"easy",0.961,1
"645","linesB","12",85,"absent",18.967,1
"646","linesB","12",86,"easy",1.316,1
"647","linesB","12",87,"absent",21.041,1
"648","linesB","12",88,"hard",18.633,1
"649","linesB","12",89,"easy",0.659,1
"650","linesB","12",90,"easy",0.776,1
"651","linesB","12",91,"absent",20.194,1
"652","linesB","12",92,"easy",0.983,1
"653","linesB","12",93,"absent",26.24,1
"654","linesB","12",94,"hard",28.89,1
"655","linesB","12",95,"hard",6.242,1
"656","linesB","12",96,"absent",23.52,1
"657","linesB","12",97,"absent",18.531,1
"658","linesB","12",98,"absent",22.667,1
"659","linesB","12",99,"absent",23.37,1
"660","linesB","12",100,"hard",27.41,1
"661","linesB","12",101,"absent",23.013,1
"662","linesB","12",102,"hard",19.602,1
"663","linesB","12",103,"absent",20.973,1
"664","linesB","12",104,"hard",18.567,1
"665","linesB","12",105,"easy",0.989,1
"666","linesB","12",106,"absent",19.032,1
"667","linesB","12",107,"easy",0.781,1
"668","linesB","12",108,"hard",19.331,1
"669","linesB","12",109,"absent",28.839,1
"670","linesB","12",110,"absent",30.013,1
"671","linesB","12",111,"easy",0.852,1
"672","linesB","12",112,"absent",25.551,1
"673","linesB","13",17,"easy",0.692,1
"674","linesB","13",18,"hard",4.238,0
"675","linesB","13",19,"easy",0.833,1
"676","linesB","13",20,"hard",4.892,1
"677","linesB","13",21,"easy",0.86,1
"678","linesB","13",22,"absent",4.981,1
"679","linesB","13",23,"absent",3.746,1
"680","linesB","13",24,"easy",3.544,0
"681","linesB","13",25,"hard",5.105,0
"682","linesB","13",26,"absent",5.981,1
"683","linesB","13",27,"absent",4.622,0
"684","linesB","13",28,"absent",5.165,1
"685","linesB","13",29,"absent",6.407,0
"686","linesB","13",30,"absent",7.12,1
"687","linesB","13",31,"easy",7.292,0
"688","linesB","13",32,"absent",8.064,1
"689","linesB","13",33,"hard",7.527,0
"690","linesB","13",34,"easy",2.205,1
"691","linesB","13",35,"absent",9.96,1
"692","linesB","13",36,"absent",7.884,1
"693","linesB","13",37,"absent",9.152,1
"694","linesB","13",38,"absent",9.844,1
"695","linesB","13",39,"hard",3.024,1
"696","linesB","13",40,"hard",11.306,0
"697","linesB","13",41,"absent",5.682,1
"698","linesB","13",42,"absent",4.414,0
"699","linesB","13",43,"absent",8.169,1
"700","linesB","13",44,"absent",8.073,1
"701","linesB","13",45,"easy",3.162,1
"702","linesB","13",46,"easy",1.174,1
"703","linesB","13",47,"hard",8.384,0
"704","linesB","13",48,"absent",6.91,1
"705","linesB","13",49,"easy",0.827,1
"706","linesB","13",50,"absent",7.482,1
"707","linesB","13",51,"absent",1.504,0
"708","linesB","13",52,"easy",1.167,1
"709","linesB","13",53,"absent",8.309,1
"710","linesB","13",54,"hard",6.221,0
"711","linesB","13",55,"absent",8.927,1
"712","linesB","13",56,"absent",6.512,1
"713","linesB","13",57,"hard",6.455,0
"714","linesB","13",58,"easy",0.683,1
"715","linesB","13",59,"hard",7.378,0
"716","linesB","13",60,"hard",10.122,0
"717","linesB","13",61,"absent",10.085,1
"718","linesB","13",62,"easy",0.649,1
"719","linesB","13",63,"hard",9.437,0
"720","linesB","13",64,"absent",7.309,1
"721","linesB","13",65,"absent",5.262,1
"722","linesB","13",66,"easy",0.71,1
"723","linesB","13",67,"absent",8.303,1
"724","linesB","13",68,"hard",7.362,0
"725","linesB","13",69,"absent",9.823,1
"726","linesB","13",70,"hard",6.14,0
"727","linesB","13",71,"hard",2.862,1
"728","linesB","13",72,"absent",2.737,0
"729","linesB","13",73,"easy",1.531,1
"730","linesB","13",74,"hard",8.183,0
"731","linesB","13",75,"absent",10.356,1
"732","linesB","13",76,"easy",0.69,1
"733","linesB","13",77,"absent",4.355,1
"734","linesB","13",78,"hard",4.169,1
"735","linesB","13",79,"absent",4.134,0
"736","linesB","13",80,"absent",8.365,1
"737","linesB","13",81,"absent",5.638,0
"738","linesB","13",82,"absent",7.264,0
"739","linesB","13",83,"easy",0.821,1
"740","linesB","13",84,"easy",0.855,1
"741","linesB","13",85,"absent",12.844,1
"742","linesB","13",86,"easy",0.608,1
"743","linesB","13",87,"absent",1.258,0
"744","linesB","13",88,"hard",10.725,0
"745","linesB","13",89,"easy",0.766,1
"746","linesB","13",90,"easy",0.648,1
"747","linesB","13",91,"absent",6.25,1
"748","linesB","13",92,"easy",0.556,1
"749","linesB","13",93,"absent",5.349,0
"750","linesB","13",94,"hard",6.504,0
"751","linesB","13",95,"hard",8.292,0
"752","linesB","13",96,"absent",5.261,0
"753","linesB","13",97,"absent",11.859,1
"754","linesB","13",98,"absent",10.353,1
"755","linesB","13",99,"absent",8.626,1
"756","linesB","13",100,"hard",7.799,0
"757","linesB","13",101,"absent",6.205,0
"758","linesB","13",102,"hard",9.055,0
"759","linesB","13",103,"absent",8.883,1
"760","linesB","13",104,"hard",4.884,1
"761","linesB","13",105,"easy",0.598,1
"762","linesB","13",106,"absent",7.317,1
"763","linesB","13",107,"easy",0.681,1
"764","linesB","13",108,"hard",9.23,0
"765","linesB","13",109,"absent",10.097,1
"766","linesB","13",110,"absent",9.257,1
"767","linesB","13",111,"easy",0.635,1
"768","linesB","13",112,"absent",5.284,1
"769","linesB","14",17,"easy",2.24,1
"770","linesB","14",18,"hard",8.852,1
"771","linesB","14",19,"easy",2.193,1
"772","linesB","14",20,"hard",2.992,1
"773","linesB","14",21,"easy",3.587,1
"774","linesB","14",22,"absent",4.223,0
"775","linesB","14",23,"absent",7.173,0
"776","linesB","14",24,"easy",4.995,1
"777","linesB","14",25,"hard",21.774,1
"778","linesB","14",26,"absent",9.315,0
"779","linesB","14",27,"absent",17.096,0
"780","linesB","14",28,"absent",21.702,1
"781","linesB","14",29,"absent",7.72,0
"782","linesB","14",30,"absent",15.558,0
"783","linesB","14",31,"easy",10.529,1
"784","linesB","14",32,"absent",59.503,1
"785","linesB","14",33,"hard",60.019,1
"786","linesB","14",34,"easy",2.652,1
"787","linesB","14",35,"absent",29.161,0
"788","linesB","14",36,"absent",64.87,0
"789","linesB","14",37,"absent",42.102,0
"790","linesB","14",38,"absent",47.741,0
"791","linesB","14",39,"hard",23.687,1
"792","linesB","14",40,"hard",32.916,1
"793","linesB","14",41,"absent",40.64,0
"794","linesB","14",42,"absent",83.491,0
"795","linesB","14",43,"absent",84.934,0
"796","linesB","14",44,"absent",130.329,1
"797","linesB","14",45,"easy",3.854,1
"798","linesB","14",46,"easy",2.927,1
"799","linesB","14",47,"hard",4.247,1
"800","linesB","14",48,"absent",104.331,0
"801","linesB","14",49,"easy",2.848,1
"802","linesB","14",50,"absent",113.47,1
"803","linesB","14",51,"absent",71.241,0
"804","linesB","14",52,"easy",2.971,1
"805","linesB","14",53,"absent",101.433,0
"806","linesB","14",54,"hard",118.026,1
"807","linesB","14",55,"absent",42.965,0
"808","linesB","14",56,"absent",53.105,0
"809","linesB","14",57,"hard",41.481,0
"810","linesB","14",58,"easy",1.93,1
"811","linesB","14",59,"hard",39.224,1
"812","linesB","14",60,"hard",5.43,1
"813","linesB","14",61,"absent",57.316,0
"814","linesB","14",62,"easy",1.275,1
"815","linesB","14",63,"hard",15.538,1
"816","linesB","14",64,"absent",28.987,0
"817","linesB","14",65,"absent",88.057,0
"818","linesB","14",66,"easy",1.145,1
"819","linesB","14",67,"absent",76.774,0
"820","linesB","14",68,"hard",46.136,0
"821","linesB","14",69,"absent",54.41,0
"822","linesB","14",70,"hard",4.747,1
"823","linesB","14",71,"hard",44.001,1
"824","linesB","14",72,"absent",38.914,0
"825","linesB","14",73,"easy",1.552,1
"826","linesB","14",74,"hard",26.95,1
"827","linesB","14",75,"absent",30.922,0
"828","linesB","14",76,"easy",1.222,1
"829","linesB","14",77,"absent",35.414,0
"830","linesB","14",78,"hard",42.017,0
"831","linesB","14",79,"absent",45.538,0
"832","linesB","14",80,"absent",44.666,1
"833","linesB","14",81,"absent",29.431,1
"834","linesB","14",82,"absent",47.045,0
"835","linesB","14",83,"easy",1.399,1
"836","linesB","14",84,"easy",1.403,1
"837","linesB","14",85,"absent",67.396,1
"838","linesB","14",86,"easy",1.189,1
"839","linesB","14",87,"absent",33.912,1
"840","linesB","14",88,"hard",36.802,0
"841","linesB","14",89,"easy",1.471,1
"842","linesB","14",90,"easy",1.021,1
"843","linesB","14",91,"absent",52.078,1
"844","linesB","14",92,"easy",1.07,1
"845","linesB","14",93,"absent",41.7,0
"846","linesB","14",94,"hard",25.236,1
"847","linesB","14",95,"hard",2.936,1
"848","linesB","14",96,"absent",41.365,0
"849","linesB","14",97,"absent",22.375,0
"850","linesB","14",98,"absent",35.655,0
"851","linesB","14",99,"absent",64.21,0
"852","linesB","14",100,"hard",48.144,0
"853","linesB","14",101,"absent",75.855,0
"854","linesB","14",102,"hard",23.607,1
"855","linesB","14",103,"absent",57.685,0
"856","linesB","14",104,"hard",40.287,1
"857","linesB","14",105,"easy",1.88,1
"858","linesB","14",106,"absent",50.095,1
"859","linesB","14",107,"easy",0.966,1
"860","linesB","14",108,"hard",2.233,1
"861","linesB","14",109,"absent",42.197,1
"862","linesB","14",110,"absent",30.904,0
"863","linesB","14",111,"easy",1.154,1
"864","linesB","14",112,"absent",48.047,0
"865","linesB","15",17,"easy",1.824,1
"866","linesB","15",18,"hard",6.85,0
"867","linesB","15",19,"easy",1.487,1
"868","linesB","15",20,"hard",9.899,0
"869","linesB","15",21,"easy",1.625,1
"870","linesB","15",22,"absent",15.889,1
"871","linesB","15",23,"absent",10.498,1
"872","linesB","15",24,"easy",2.621,1
"873","linesB","15",25,"hard",12.651,0
"874","linesB","15",26,"absent",18.998,1
"875","linesB","15",27,"absent",9.315,1
"876","linesB","15",28,"absent",13.522,1
"877","linesB","15",29,"absent",14.725,1
"878","linesB","15",30,"absent",9.983,1
"879","linesB","15",31,"easy",1.174,1
"880","linesB","15",32,"absent",8.905,1
"881","linesB","15",33,"hard",8.451,0
"882","linesB","15",34,"easy",1.227,1
"883","linesB","15",35,"absent",12.648,1
"884","linesB","15",36,"absent",11.861,1
"885","linesB","15",37,"absent",10.585,1
"886","linesB","15",38,"absent",7.743,1
"887","linesB","15",39,"hard",4.7,1
"888","linesB","15",40,"hard",6.246,1
"889","linesB","15",41,"absent",8.907,1
"890","linesB","15",42,"absent",12.295,1
"891","linesB","15",43,"absent",11.827,1
"892","linesB","15",44,"absent",11.727,1
"893","linesB","15",45,"easy",2.151,1
"894","linesB","15",46,"easy",0.984,1
"895","linesB","15",47,"hard",8.375,0
"896","linesB","15",48,"absent",10.759,1
"897","linesB","15",49,"easy",0.803,1
"898","linesB","15",50,"absent",11.685,1
"899","linesB","15",51,"absent",9.078,1
"900","linesB","15",52,"easy",0.804,1
"901","linesB","15",53,"absent",8.775,1
"902","linesB","15",54,"hard",7.531,1
"903","linesB","15",55,"absent",9.112,1
"904","linesB","15",56,"absent",10.076,1
"905","linesB","15",57,"hard",8.422,0
"906","linesB","15",58,"easy",2.179,1
"907","linesB","15",59,"hard",11.35,0
"908","linesB","15",60,"hard",12.38,0
"909","linesB","15",61,"absent",14.451,1
"910","linesB","15",62,"easy",0.853,1
"911","linesB","15",63,"hard",10.005,0
"912","linesB","15",64,"absent",20.909,1
"913","linesB","15",65,"absent",12.886,1
"914","linesB","15",66,"easy",0.736,1
"915","linesB","15",67,"absent",14.776,1
"916","linesB","15",68,"hard",16.078,0
"917","linesB","15",69,"absent",9.957,1
"918","linesB","15",70,"hard",11.961,0
"919","linesB","15",71,"hard",4.264,1
"920","linesB","15",72,"absent",18.328,1
"921","linesB","15",73,"easy",1.208,1
"922","linesB","15",74,"hard",6.35,1
"923","linesB","15",75,"absent",13.447,1
"924","linesB","15",76,"easy",0.805,1
"925","linesB","15",77,"absent",17.253,1
"926","linesB","15",78,"hard",2.733,1
"927","linesB","15",79,"absent",13.677,1
"928","linesB","15",80,"absent",9.145,1
"929","linesB","15",81,"absent",9.848,1
"930","linesB","15",82,"absent",10.978,1
"931","linesB","15",83,"easy",0.952,1
"932","linesB","15",84,"easy",0.961,1
"933","linesB","15",85,"absent",13.561,1
"934","linesB","15",86,"easy",0.831,1
"935","linesB","15",87,"absent",9.745,1
"936","linesB","15",88,"hard",5.905,1
"937","linesB","15",89,"easy",1.326,1
"938","linesB","15",90,"easy",1.244,1
"939","linesB","15",91,"absent",7.928,1
"940","linesB","15",92,"easy",0.949,1
"941","linesB","15",93,"absent",7.486,1
"942","linesB","15",94,"hard",7.563,0
"943","linesB","15",95,"hard",1.75,1
"944","linesB","15",96,"absent",7.872,1
"945","linesB","15",97,"absent",8.782,1
"946","linesB","15",98,"absent",12.566,1
"947","linesB","15",99,"absent",7.152,1
"948","linesB","15",100,"hard",8.531,0
"949","linesB","15",101,"absent",12.577,1
"950","linesB","15",102,"hard",9.435,0
"951","linesB","15",103,"absent",11.832,1
"952","linesB","15",104,"hard",16.056,0
"953","linesB","15",105,"easy",0.759,1
"954","linesB","15",106,"absent",18.216,1
"955","linesB","15",107,"easy",0.81,1
"956","linesB","15",108,"hard",15.057,0
"957","linesB","15",109,"absent",13.127,1
"958","linesB","15",110,"absent",10.219,1
"959","linesB","15",111,"easy",0.746,1
"960","linesB","15",112,"absent",13.855,1
"961","linesB","21",17,"easy",1.253,1
"962","linesB","21",18,"hard",5.894,1
"963","linesB","21",19,"easy",2.202,1
"964","linesB","21",20,"hard",6.769,0
"965","linesB","21",21,"easy",3.071,1
"966","linesB","21",22,"absent",3.588,1
"967","linesB","21",23,"absent",3.248,1
"968","linesB","21",24,"easy",2.87,1
"969","linesB","21",25,"hard",2.86,0
"970","linesB","21",26,"absent",6.333,0
"971","linesB","21",27,"absent",3.661,1
"972","linesB","21",28,"absent",2.182,0
"973","linesB","21",29,"absent",2.988,1
"974","linesB","21",30,"absent",2.17,1
"975","linesB","21",31,"easy",2.189,1
"976","linesB","21",32,"absent",3.341,1
"977","linesB","21",33,"hard",2.559,0
"978","linesB","21",34,"easy",1.073,1
"979","linesB","21",35,"absent",3.737,1
"980","linesB","21",36,"absent",5.427,1
"981","linesB","21",37,"absent",3.755,1
"982","linesB","21",38,"absent",2.616,1
"983","linesB","21",39,"hard",3.17,0
"984","linesB","21",40,"hard",6.734,0
"985","linesB","21",41,"absent",3.999,1
"986","linesB","21",42,"absent",6.804,1
"987","linesB","21",43,"absent",3.65,1
"988","linesB","21",44,"absent",4.758,1
"989","linesB","21",45,"easy",4.415,1
"990","linesB","21",46,"easy",2.271,1
"991","linesB","21",47,"hard",2.524,0
"992","linesB","21",48,"absent",3.539,1
"993","linesB","21",49,"easy",1.112,1
"994","linesB","21",50,"absent",4.485,1
"995","linesB","21",51,"absent",2.677,1
"996","linesB","21",52,"easy",1.36,1
"997","linesB","21",53,"absent",3.616,1
"998","linesB","21",54,"hard",5.759,0
"999","linesB","21",55,"absent",5.407,1
"1000","linesB","21",56,"absent",6.04,0
"1001","linesB","21",57,"hard",5.054,0
"1002","linesB","21",58,"easy",1.813,1
"1003","linesB","21",59,"hard",6.825,0
"1004","linesB","21",60,"hard",10.116,0
"1005","linesB","21",61,"absent",9.225,1
"1006","linesB","21",62,"easy",0.902,1
"1007","linesB","21",63,"hard",6.529,1
"1008","linesB","21",64,"absent",10.308,1
"1009","linesB","21",65,"absent",9.041,1
"1010","linesB","21",66,"easy",0.747,1
"1011","linesB","21",67,"absent",9.935,1
"1012","linesB","21",68,"hard",7.987,0
"1013","linesB","21",69,"absent",13.786,1
"1014","linesB","21",70,"hard",3.372,1
"1015","linesB","21",71,"hard",10.626,0
"1016","linesB","21",72,"absent",9.618,1
"1017","linesB","21",73,"easy",3.478,1
"1018","linesB","21",74,"hard",5.333,1
"1019","linesB","21",75,"absent",10.539,1
"1020","linesB","21",76,"easy",0.928,1
"1021","linesB","21",77,"absent",10.187,1
"1022","linesB","21",78,"hard",6.513,1
"1023","linesB","21",79,"absent",10.194,1
"1024","linesB","21",80,"absent",6.91,1
"1025","linesB","21",81,"absent",9.762,1
"1026","linesB","21",82,"absent",11.783,1
"1027","linesB","21",83,"easy",1.663,1
"1028","linesB","21",84,"easy",1.297,1
"1029","linesB","21",85,"absent",9.868,1
"1030","linesB","21",86,"easy",0.77,1
"1031","linesB","21",87,"absent",8.237,1
"1032","linesB","21",88,"hard",6.95,0
"1033","linesB","21",89,"easy",0.828,1
"1034","linesB","21",90,"easy",0.742,1
"1035","linesB","21",91,"absent",11.073,1
"1036","linesB","21",92,"easy",0.801,1
"1037","linesB","21",93,"absent",7.02,1
"1038","linesB","21",94,"hard",6.78,0
"1039","linesB","21",95,"hard",2.349,1
"1040","linesB","21",96,"absent",10.182,1
"1041","linesB","21",97,"absent",6.861,1
"1042","linesB","21",98,"absent",9.192,1
"1043","linesB","21",99,"absent",9.755,1
"1044","linesB","21",100,"hard",10.052,0
"1045","linesB","21",101,"absent",8.034,1
"1046","linesB","21",102,"hard",8.823,1
"1047","linesB","21",103,"absent",14.48,1
"1048","linesB","21",104,"hard",3.557,1
"1049","linesB","21",105,"easy",1.237,1
"1050","linesB","21",106,"absent",5.675,0
"1051","linesB","21",107,"easy",0.695,1
"1052","linesB","21",108,"hard",4.839,1
"1053","linesB","21",109,"absent",3.366,0
"1054","linesB","21",110,"absent",5.444,0
"1055","linesB","21",111,"easy",0.887,1
"1056","linesB","21",112,"absent",3.758,1
"1057","linesB","22",17,"absent",2.857,1
"1058","linesB","22",18,"hard",2.118,1
"1059","linesB","22",19,"absent",3.724,0
"1060","linesB","22",20,"absent",3.096,1
"1061","linesB","22",21,"absent",3.152,0
"1062","linesB","22",22,"absent",2.436,1
"1063","linesB","22",23,"easy",1.213,1
"1064","linesB","22",24,"hard",1.566,0
"1065","linesB","22",25,"hard",2.974,1
"1066","linesB","22",26,"absent",3.566,0
"1067","linesB","22",27,"easy",1.149,1
"1068","linesB","22",28,"absent",1.803,1
"1069","linesB","22",29,"hard",2.278,0
"1070","linesB","22",30,"easy",4.444,1
"1071","linesB","22",31,"absent",3.598,1
"1072","linesB","22",32,"hard",2.235,0
"1073","linesB","22",33,"easy",1.371,1
"1074","linesB","22",34,"easy",1.208,1
"1075","linesB","22",35,"absent",1.232,1
"1076","linesB","22",36,"absent",3.356,1
"1077","linesB","22",37,"hard",2.04,0
"1078","linesB","22",38,"easy",0.939,1
"1079","linesB","22",39,"absent",1.635,1
"1080","linesB","22",40,"absent",3.057,0
"1081","linesB","22",41,"easy",0.968,1
"1082","linesB","22",42,"absent",1.919,1
"1083","linesB","22",43,"hard",1.736,0
"1084","linesB","22",44,"absent",1.579,1
"1085","linesB","22",45,"absent",4.069,0
"1086","linesB","22",46,"hard",3.253,1
"1087","linesB","22",47,"easy",3.594,0
"1088","linesB","22",48,"easy",1.168,1
"1089","linesB","22",49,"hard",2.478,1
"1090","linesB","22",50,"absent",2.752,0
"1091","linesB","22",51,"absent",3.49,1
"1092","linesB","22",52,"absent",1.446,0
"1093","linesB","22",53,"easy",2.445,1
"1094","linesB","22",54,"absent",2.127,0
"1095","linesB","22",55,"absent",4.092,1
"1096","linesB","22",56,"hard",3.985,0
"1097","linesB","22",57,"absent",3.754,1
"1098","linesB","22",58,"easy",2.087,1
"1099","linesB","22",59,"absent",2.466,0
"1100","linesB","22",60,"hard",1.857,1
"1101","linesB","22",61,"easy",2.401,1
"1102","linesB","22",62,"hard",1.635,1
"1103","linesB","22",63,"absent",2.283,0
"1104","linesB","22",64,"absent",2.056,1
"1105","linesB","22",65,"easy",1.18,1
"1106","linesB","22",66,"absent",2.588,0
"1107","linesB","22",67,"easy",0.848,1
"1108","linesB","22",68,"hard",1.548,0
"1109","linesB","22",69,"hard",2.135,1
"1110","linesB","22",70,"hard",2.371,1
"1111","linesB","22",71,"hard",2.053,1
"1112","linesB","22",72,"hard",2.094,1
"1113","linesB","22",73,"absent",1.39,0
"1114","linesB","22",74,"absent",1.358,0
"1115","linesB","22",75,"absent",1.902,0
"1116","linesB","22",76,"absent",0.722,1
"1117","linesB","22",77,"absent",4.76,0
"1118","linesB","22",78,"absent",1.561,1
"1119","linesB","22",79,"absent",5.152,0
"1120","linesB","22",80,"absent",0.517,1
"1121","linesB","22",81,"easy",2.121,1
"1122","linesB","22",82,"easy",1.526,1
"1123","linesB","22",83,"absent",1.64,1
"1124","linesB","22",84,"hard",3.489,0
"1125","linesB","22",85,"easy",1.342,1
"1126","linesB","22",86,"absent",6.548,0
"1127","linesB","22",87,"easy",0.962,1
"1128","linesB","22",88,"absent",1.6,0
"1129","linesB","22",89,"absent",1.763,0
"1130","linesB","22",90,"absent",4.277,1
"1131","linesB","22",91,"absent",4.281,1
"1132","linesB","22",92,"absent",3.798,0
"1133","linesB","22",93,"easy",0.899,1
"1134","linesB","22",94,"absent",2.595,1
"1135","linesB","22",95,"easy",1.323,1
"1136","linesB","22",96,"hard",2.669,0
"1137","linesB","22",97,"hard",6.477,0
"1138","linesB","22",98,"hard",1.694,1
"1139","linesB","22",99,"hard",3.094,1
"1140","linesB","22",100,"easy",1.467,1
"1141","linesB","22",101,"absent",1.834,0
"1142","linesB","22",102,"easy",1.91,0
"1143","linesB","22",103,"hard",3.414,1
"1144","linesB","22",104,"easy",0.984,1
"1145","linesB","22",105,"absent",2.849,0
"1146","linesB","22",106,"absent",3.467,1
"1147","linesB","22",107,"hard",2.948,1
"1148","linesB","22",108,"absent",2.38,0
"1149","linesB","22",109,"absent",3.527,1
"1150","linesB","22",110,"easy",0.998,1
"1151","linesB","22",111,"absent",4.151,1
"1152","linesB","22",112,"absent",4.532,1
"1153","linesB","23",17,"easy",7.227,1
"1154","linesB","23",18,"hard",14.22,0
"1155","linesB","23",19,"easy",18.297,0
"1156","linesB","23",20,"hard",2.936,1
"1157","linesB","23",21,"easy",1.011,1
"1158","linesB","23",22,"absent",17.618,0
"1159","linesB","23",23,"absent",9.897,1
"1160","linesB","23",24,"easy",14.179,1
"1161","linesB","23",25,"hard",3.098,1
"1162","linesB","23",26,"absent",3.681,0
"1163","linesB","23",27,"absent",11.658,1
"1164","linesB","23",28,"absent",15.595,1
"1165","linesB","23",29,"absent",4.517,0
"1166","linesB","23",30,"absent",4.241,0
"1167","linesB","23",31,"easy",16.688,1
"1168","linesB","23",32,"absent",8.664,0
"1169","linesB","23",33,"hard",16.227,0
"1170","linesB","23",34,"easy",11.333,1
"1171","linesB","23",35,"absent",19.929,1
"1172","linesB","23",36,"absent",4.697,0
"1173","linesB","23",37,"absent",2.103,0
"1174","linesB","23",38,"absent",17.16,1
"1175","linesB","23",39,"hard",15.262,0
"1176","linesB","23",40,"hard",16.449,0
"1177","linesB","23",41,"absent",18.083,1
"1178","linesB","23",42,"absent",17.365,1
"1179","linesB","23",43,"absent",20.568,1
"1180","linesB","23",44,"absent",22.372,1
"1181","linesB","23",45,"easy",20.493,0
"1182","linesB","23",46,"easy",3.288,1
"1183","linesB","23",47,"hard",22.414,1
"1184","linesB","23",48,"absent",22.658,1
"1185","linesB","23",49,"easy",1.124,1
"1186","linesB","23",50,"absent",21.838,1
"1187","linesB","23",51,"absent",13.43,1
"1188","linesB","23",52,"easy",1.39,1
"1189","linesB","23",53,"absent",16.292,1
"1190","linesB","23",54,"hard",17.368,0
"1191","linesB","23",55,"absent",15.141,1
"1192","linesB","23",56,"absent",20.141,1
"1193","linesB","23",57,"hard",13.476,1
"1194","linesB","23",58,"easy",2.742,1
"1195","linesB","23",59,"hard",29.523,1
"1196","linesB","23",60,"hard",21.672,0
"1197","linesB","23",61,"absent",10.76,0
"1198","linesB","23",62,"easy",2.537,1
"1199","linesB","23",63,"hard",24.177,0
"1200","linesB","23",64,"absent",22.91,1
"1201","linesB","23",65,"absent",21.019,1
"1202","linesB","23",66,"easy",1.415,1
"1203","linesB","23",67,"absent",21.913,1
"1204","linesB","23",68,"hard",25.006,0
"1205","linesB","23",69,"absent",18.557,1
"1206","linesB","23",70,"hard",18.37,0
"1207","linesB","23",71,"hard",21.722,0
"1208","linesB","23",72,"absent",16.604,1
"1209","linesB","23",73,"easy",1.812,1
"1210","linesB","23",74,"hard",11.27,0
"1211","linesB","23",75,"absent",20.476,1
"1212","linesB","23",76,"easy",1.007,1
"1213","linesB","23",77,"absent",15.396,1
"1214","linesB","23",78,"hard",11.511,0
"1215","linesB","23",79,"absent",18.11,1
"1216","linesB","23",80,"absent",20.899,1
"1217","linesB","23",81,"absent",20.115,1
"1218","linesB","23",82,"absent",21.592,1
"1219","linesB","23",83,"easy",2.255,1
"1220","linesB","23",84,"easy",1.758,1
"1221","linesB","23",85,"absent",21.15,1
"1222","linesB","23",86,"easy",0.859,1
"1223","linesB","23",87,"absent",24.829,1
"1224","linesB","23",88,"hard",2.456,1
"1225","linesB","23",89,"easy",1.006,1
"1226","linesB","23",90,"easy",1.098,1
"1227","linesB","23",91,"absent",16.802,1
"1228","linesB","23",92,"easy",1.732,1
"1229","linesB","23",93,"absent",13.557,1
"1230","linesB","23",94,"hard",12.45,0
"1231","linesB","23",95,"hard",5.058,1
"1232","linesB","23",96,"absent",26.617,1
"1233","linesB","23",97,"absent",17.564,1
"1234","linesB","23",98,"absent",15.204,1
"1235","linesB","23",99,"absent",12.954,1
"1236","linesB","23",100,"hard",12.336,0
"1237","linesB","23",101,"absent",18.474,1
"1238","linesB","23",102,"hard",20.183,0
"1239","linesB","23",103,"absent",26.068,1
"1240","linesB","23",104,"hard",1.918,1
"1241","linesB","23",105,"easy",0.956,1
"1242","linesB","23",106,"absent",25.934,1
"1243","linesB","23",107,"easy",0.915,1
"1244","linesB","23",108,"hard",11.528,0
"1245","linesB","23",109,"absent",19.041,1
"1246","linesB","23",110,"absent",13.321,1
"1247","linesB","23",111,"easy",0.897,1
"1248","linesB","23",112,"absent",15.867,1
"1249","linesB","24",17,"absent",1.497,0
"1250","linesB","24",18,"absent",5.26,1
"1251","linesB","24",19,"absent",8.999,1
"1252","linesB","24",20,"absent",8.656,1
"1253","linesB","24",21,"absent",10.32,1
"1254","linesB","24",22,"hard",9.866,0
"1255","linesB","24",23,"easy",1.785,1
"1256","linesB","24",24,"absent",13.788,1
"1257","linesB","24",25,"hard",10.375,0
"1258","linesB","24",26,"absent",8.888,1
"1259","linesB","24",27,"hard",8.764,0
"1260","linesB","24",28,"absent",9.85,1
"1261","linesB","24",29,"absent",14.709,1
"1262","linesB","24",30,"easy",1.108,1
"1263","linesB","24",31,"absent",15.268,1
"1264","linesB","24",32,"easy",0.891,1
"1265","linesB","24",33,"absent",10.271,1
"1266","linesB","24",34,"hard",10.288,0
"1267","linesB","24",35,"hard",14.649,0
"1268","linesB","24",36,"hard",8.686,0
"1269","linesB","24",37,"absent",7.155,0
"1270","linesB","24",38,"easy",0.942,1
"1271","linesB","24",39,"easy",1.303,1
"1272","linesB","24",40,"easy",1.027,1
"1273","linesB","24",41,"hard",8.208,1
"1274","linesB","24",42,"absent",8.686,1
"1275","linesB","24",43,"absent",10.586,1
"1276","linesB","24",44,"hard",8.943,0
"1277","linesB","24",45,"absent",10.617,1
"1278","linesB","24",46,"absent",12.19,1
"1279","linesB","24",47,"absent",12.629,1
"1280","linesB","24",48,"absent",10.769,1
"1281","linesB","24",49,"absent",12.589,0
"1282","linesB","24",50,"absent",8.371,1
"1283","linesB","24",51,"absent",5.052,0
"1284","linesB","24",52,"hard",6.538,1
"1285","linesB","24",53,"hard",8.439,0
"1286","linesB","24",54,"absent",12.384,1
"1287","linesB","24",55,"easy",0.667,1
"1288","linesB","24",56,"absent",6.978,1
"1289","linesB","24",57,"easy",0.922,1
"1290","linesB","24",58,"easy",0.737,1
"1291","linesB","24",59,"easy",1.079,1
"1292","linesB","24",60,"absent",8.461,1
"1293","linesB","24",61,"hard",6.555,0
"1294","linesB","24",62,"easy",0.799,1
"1295","linesB","24",63,"hard",10.611,0
"1296","linesB","24",64,"easy",0.963,1
"1297","linesB","24",65,"absent",5.991,1
"1298","linesB","24",66,"easy",0.654,1
"1299","linesB","24",67,"hard",3.936,1
"1300","linesB","24",68,"absent",10.294,1
"1301","linesB","24",69,"easy",0.686,1
"1302","linesB","24",70,"easy",2.016,1
"1303","linesB","24",71,"absent",4.68,1
"1304","linesB","24",72,"absent",9.008,1
"1305","linesB","24",73,"absent",7.192,1
"1306","linesB","24",74,"absent",5.227,1
"1307","linesB","24",75,"absent",10.342,1
"1308","linesB","24",76,"absent",9.851,1
"1309","linesB","24",77,"absent",9.32,1
"1310","linesB","24",78,"easy",0.721,1
"1311","linesB","24",79,"easy",0.955,1
"1312","linesB","24",80,"hard",1.684,1
"1313","linesB","24",81,"hard",5.022,1
"1314","linesB","24",82,"absent",4.594,1
"1315","linesB","24",83,"absent",5.117,1
"1316","linesB","24",84,"hard",4.537,0
"1317","linesB","24",85,"easy",0.639,1
"1318","linesB","24",86,"hard",2.655,1
"1319","linesB","24",87,"absent",7.274,1
"1320","linesB","24",88,"hard",9.983,0
"1321","linesB","24",89,"absent",4.146,1
"1322","linesB","24",90,"easy",0.848,1
"1323","linesB","24",91,"absent",12.139,1
"1324","linesB","24",92,"hard",4.736,0
"1325","linesB","24",93,"absent",5.982,1
"1326","linesB","24",94,"easy",0.738,1
"1327","linesB","24",95,"absent",9.221,1
"1328","linesB","24",96,"easy",0.8,1
"1329","linesB","24",97,"absent",6.363,1
"1330","linesB","24",98,"absent",6.305,1
"1331","linesB","24",99,"absent",6.915,1
"1332","linesB","24",100,"easy",0.964,1
"1333","linesB","24",101,"easy",0.642,1
"1334","linesB","24",102,"absent",5.692,1
"1335","linesB","24",103,"hard",6.371,0
"1336","linesB","24",104,"easy",0.891,1
"1337","linesB","24",105,"absent",9.555,1
"1338","linesB","24",106,"absent",5.296,1
"1339","linesB","24",107,"hard",6.428,0
"1340","linesB","24",108,"absent",3.699,1
"1341","linesB","24",109,"hard",2.41,1
"1342","linesB","24",110,"absent",6.3,0
"1343","linesB","24",111,"hard",7.632,0
"1344","linesB","24",112,"hard",8.087,0
"1345","linesB","25",17,"absent",5.923,0
"1346","linesB","25",18,"absent",3.811,0
"1347","linesB","25",19,"absent",17.727,0
"1348","linesB","25",20,"absent",8.412,1
"1349","linesB","25",21,"absent",6.845,1
"1350","linesB","25",22,"hard",9.036,0
"1351","linesB","25",23,"easy",1.725,1
"1352","linesB","25",24,"absent",17.171,1
"1353","linesB","25",25,"hard",15.569,0
"1354","linesB","25",26,"absent",5.534,0
"1355","linesB","25",27,"hard",2.044,1
"1356","linesB","25",28,"absent",10.48,1
"1357","linesB","25",29,"absent",10.369,1
"1358","linesB","25",30,"easy",1.461,1
"1359","linesB","25",31,"absent",11.847,1
"1360","linesB","25",32,"easy",1.274,1
"1361","linesB","25",33,"absent",8.868,1
"1362","linesB","25",34,"hard",14.437,0
"1363","linesB","25",35,"hard",3.776,1
"1364","linesB","25",36,"hard",14.457,1
"1365","linesB","25",37,"absent",10.61,1
"1366","linesB","25",38,"easy",1.145,1
"1367","linesB","25",39,"easy",3.026,1
"1368","linesB","25",40,"easy",0.93,1
"1369","linesB","25",41,"hard",1.327,1
"1370","linesB","25",42,"absent",12.22,1
"1371","linesB","25",43,"absent",4.772,1
"1372","linesB","25",44,"hard",5.787,0
"1373","linesB","25",45,"absent",6.383,1
"1374","linesB","25",46,"absent",8.407,1
"1375","linesB","25",47,"absent",9.467,1
"1376","linesB","25",48,"absent",4.938,1
"1377","linesB","25",49,"absent",5.035,1
"1378","linesB","25",50,"absent",6.723,1
"1379","linesB","25",51,"absent",5.329,1
"1380","linesB","25",52,"hard",3.434,1
"1381","linesB","25",53,"hard",10.809,0
"1382","linesB","25",54,"absent",8.723,1
"1383","linesB","25",55,"easy",3.607,1
"1384","linesB","25",56,"absent",6.882,1
"1385","linesB","25",57,"easy",0.93,1
"1386","linesB","25",58,"easy",0.652,1
"1387","linesB","25",59,"easy",0.937,1
"1388","linesB","25",60,"absent",8.391,1
"1389","linesB","25",61,"hard",7.003,0
"1390","linesB","25",62,"easy",0.713,1
"1391","linesB","25",63,"hard",7.707,0
"1392","linesB","25",64,"easy",1.071,1
"1393","linesB","25",65,"absent",8.045,1
"1394","linesB","25",66,"easy",1.185,1
"1395","linesB","25",67,"hard",7,0
"1396","linesB","25",68,"absent",6.626,1
"1397","linesB","25",69,"easy",0.8,1
"1398","linesB","25",70,"easy",2.099,1
"1399","linesB","25",71,"absent",7.58,1
"1400","linesB","25",72,"absent",3.057,1
"1401","linesB","25",73,"absent",8.425,1
"1402","linesB","25",74,"absent",2.641,0
"1403","linesB","25",75,"absent",8.298,1
"1404","linesB","25",76,"absent",6.239,1
"1405","linesB","25",77,"absent",6.03,1
"1406","linesB","25",78,"easy",0.936,1
"1407","linesB","25",79,"easy",1.118,1
"1408","linesB","25",80,"hard",8.998,1
"1409","linesB","25",81,"hard",3.825,1
"1410","linesB","25",82,"absent",5.901,1
"1411","linesB","25",83,"absent",5.29,1
"1412","linesB","25",84,"hard",4.207,0
"1413","linesB","25",85,"easy",1.201,1
"1414","linesB","25",86,"hard",4.956,0
"1415","linesB","25",87,"absent",9.275,1
"1416","linesB","25",88,"hard",9.591,0
"1417","linesB","25",89,"absent",4.77,1
"1418","linesB","25",90,"easy",0.951,1
"1419","linesB","25",91,"absent",7.637,1
"1420","linesB","25",92,"hard",7.061,0
"1421","linesB","25",93,"absent",9.607,1
"1422","linesB","25",94,"easy",0.944,1
"1423","linesB","25",95,"absent",7.338,1
"1424","linesB","25",96,"easy",0.809,1
"1425","linesB","25",97,"absent",6.948,1
"1426","linesB","25",98,"absent",11.882,1
"1427","linesB","25",99,"absent",5.841,1
"1428","linesB","25",100,"easy",1.019,1
"1429","linesB","25",101,"easy",0.759,1
"1430","linesB","25",102,"absent",7.647,1
"1431","linesB","25",103,"hard",2.836,1
"1432","linesB","25",104,"easy",0.953,1
"1433","linesB","25",105,"absent",5.767,1
"1434","linesB","25",106,"absent",6.439,1
"1435","linesB","25",107,"hard",4.292,0
"1436","linesB","25",108,"absent",4.048,1
"1437","linesB","25",109,"hard",7.417,0
"1438","linesB","25",110,"absent",6.986,1
"1439","linesB","25",111,"hard",8.958,0
"1440","linesB","25",112,"hard",5.891,0
"1441","linesB","31",17,"easy",1.077,1
"1442","linesB","31",18,"hard",6.161,1
"1443","linesB","31",19,"easy",1.232,1
"1444","linesB","31",20,"hard",19.806,1
"1445","linesB","31",21,"easy",1.005,1
"1446","linesB","31",22,"absent",27.655,1
"1447","linesB","31",23,"absent",19.485,1
"1448","linesB","31",24,"easy",0.912,1
"1449","linesB","31",25,"hard",21.934,0
"1450","linesB","31",26,"absent",29.526,1
"1451","linesB","31",27,"absent",24.074,1
"1452","linesB","31",28,"absent",24.864,1
"1453","linesB","31",29,"absent",36.8,1
"1454","linesB","31",30,"absent",32.987,1
"1455","linesB","31",31,"easy",1.385,1
"1456","linesB","31",32,"absent",32.639,1
"1457","linesB","31",33,"hard",30.699,1
"1458","linesB","31",34,"easy",1.032,1
"1459","linesB","31",35,"absent",33.227,1
"1460","linesB","31",36,"absent",29.893,1
"1461","linesB","31",37,"absent",31.513,1
"1462","linesB","31",38,"absent",31.619,1
"1463","linesB","31",39,"hard",19.696,1
"1464","linesB","31",40,"hard",26.64,0
"1465","linesB","31",41,"absent",22.869,1
"1466","linesB","31",42,"absent",27.541,1
"1467","linesB","31",43,"absent",32.78,1
"1468","linesB","31",44,"absent",31.995,1
"1469","linesB","31",45,"easy",1.9,1
"1470","linesB","31",46,"easy",1.136,1
"1471","linesB","31",47,"hard",6.791,0
"1472","linesB","31",48,"absent",19.973,1
"1473","linesB","31",49,"easy",0.844,1
"1474","linesB","31",50,"absent",19.907,1
"1475","linesB","31",51,"absent",24.661,1
"1476","linesB","31",52,"easy",1.208,1
"1477","linesB","31",53,"absent",21.725,1
"1478","linesB","31",54,"hard",16.362,1
"1479","linesB","31",55,"absent",19.753,1
"1480","linesB","31",56,"absent",17.511,1
"1481","linesB","31",57,"hard",26.36,1
"1482","linesB","31",58,"easy",1.092,1
"1483","linesB","31",59,"hard",23.935,0
"1484","linesB","31",60,"hard",29.805,0
"1485","linesB","31",61,"absent",24.384,1
"1486","linesB","31",62,"easy",0.893,1
"1487","linesB","31",63,"hard",5.044,1
"1488","linesB","31",64,"absent",25.824,1
"1489","linesB","31",65,"absent",22.35,1
"1490","linesB","31",66,"easy",0.798,1
"1491","linesB","31",67,"absent",25.703,1
"1492","linesB","31",68,"hard",24.131,1
"1493","linesB","31",69,"absent",21.607,1
"1494","linesB","31",70,"hard",2.353,1
"1495","linesB","31",71,"hard",11.979,1
"1496","linesB","31",72,"absent",22.885,1
"1497","linesB","31",73,"easy",0.984,1
"1498","linesB","31",74,"hard",11,1
"1499","linesB","31",75,"absent",16.194,1
"1500","linesB","31",76,"easy",0.992,1
"1501","linesB","31",77,"absent",14.863,1
"1502","linesB","31",78,"hard",14.881,0
"1503","linesB","31",79,"absent",15.69,1
"1504","linesB","31",80,"absent",17.658,1
"1505","linesB","31",81,"absent",8.051,1
"1506","linesB","31",82,"absent",9.255,1
"1507","linesB","31",83,"easy",0.82,1
"1508","linesB","31",84,"easy",0.823,1
"1509","linesB","31",85,"absent",25.759,0
"1510","linesB","31",86,"easy",0.909,1
"1511","linesB","31",87,"absent",10.623,1
"1512","linesB","31",88,"hard",5.58,0
"1513","linesB","31",89,"easy",0.922,1
"1514","linesB","31",90,"easy",0.791,1
"1515","linesB","31",91,"absent",6.994,1
"1516","linesB","31",92,"easy",0.789,1
"1517","linesB","31",93,"absent",7.302,1
"1518","linesB","31",94,"hard",7.441,0
"1519","linesB","31",95,"hard",1.29,1
"1520","linesB","31",96,"absent",8.423,1
"1521","linesB","31",97,"absent",12.189,1
"1522","linesB","31",98,"absent",11.842,1
"1523","linesB","31",99,"absent",11.289,1
"1524","linesB","31",100,"hard",5.694,0
"1525","linesB","31",101,"absent",7.576,1
"1526","linesB","31",102,"hard",1.898,1
"1527","linesB","31",103,"absent",5.494,1
"1528","linesB","31",104,"hard",6.74,0
"1529","linesB","31",105,"easy",0.764,1
"1530","linesB","31",106,"absent",9.2,1
"1531","linesB","31",107,"easy",0.717,1
"1532","linesB","31",108,"hard",0.876,1
"1533","linesB","31",109,"absent",6.406,1
"1534","linesB","31",110,"absent",5.535,1
"1535","linesB","31",111,"easy",0.77,1
"1536","linesB","31",112,"absent",9.787,1
"1537","linesB","32",17,"easy",3.924,1
"1538","linesB","32",18,"absent",5.444,0
"1539","linesB","32",19,"absent",3.569,0
"1540","linesB","32",20,"easy",1.527,1
"1541","linesB","32",21,"hard",2.988,1
"1542","linesB","32",22,"absent",5.646,0
"1543","linesB","32",23,"absent",6.804,1
"1544","linesB","32",24,"easy",9.051,0
"1545","linesB","32",25,"absent",1.824,0
"1546","linesB","32",26,"easy",1.617,1
"1547","linesB","32",27,"easy",1.043,1
"1548","linesB","32",28,"hard",6.651,0
"1549","linesB","32",29,"easy",0.925,1
"1550","linesB","32",30,"absent",3.983,1
"1551","linesB","32",31,"absent",4.358,1
"1552","linesB","32",32,"absent",4.613,1
"1553","linesB","32",33,"absent",5.938,1
"1554","linesB","32",34,"absent",4.691,1
"1555","linesB","32",35,"hard",4.33,0
"1556","linesB","32",36,"hard",6.483,0
"1557","linesB","32",37,"hard",6.844,1
"1558","linesB","32",38,"absent",4.55,1
"1559","linesB","32",39,"absent",3.779,1
"1560","linesB","32",40,"hard",4.895,0
"1561","linesB","32",41,"absent",2.491,0
"1562","linesB","32",42,"absent",7.877,1
"1563","linesB","32",43,"absent",4.588,1
"1564","linesB","32",44,"easy",1.812,1
"1565","linesB","32",45,"absent",6.602,1
"1566","linesB","32",46,"hard",1.662,1
"1567","linesB","32",47,"absent",6.798,1
"1568","linesB","32",48,"easy",5.165,1
"1569","linesB","32",49,"absent",9.154,1
"1570","linesB","32",50,"absent",7.392,1
"1571","linesB","32",51,"hard",10.05,0
"1572","linesB","32",52,"easy",4.479,1
"1573","linesB","32",53,"hard",7.276,0
"1574","linesB","32",54,"hard",3.578,1
"1575","linesB","32",55,"absent",10.635,1
"1576","linesB","32",56,"hard",7.692,0
"1577","linesB","32",57,"absent",7.484,1
"1578","linesB","32",58,"easy",1.403,1
"1579","linesB","32",59,"absent",7.31,1
"1580","linesB","32",60,"absent",6.224,1
"1581","linesB","32",61,"easy",1.215,1
"1582","linesB","32",62,"hard",8.31,0
"1583","linesB","32",63,"absent",8.647,1
"1584","linesB","32",64,"easy",1.031,1
"1585","linesB","32",65,"hard",5.569,0
"1586","linesB","32",66,"hard",3.693,1
"1587","linesB","32",67,"absent",7.707,1
"1588","linesB","32",68,"absent",5.114,1
"1589","linesB","32",69,"easy",1.008,1
"1590","linesB","32",70,"absent",6.232,1
"1591","linesB","32",71,"easy",0.926,1
"1592","linesB","32",72,"hard",1.474,1
"1593","linesB","32",73,"hard",4.687,0
"1594","linesB","32",74,"absent",5.528,1
"1595","linesB","32",75,"easy",0.912,1
"1596","linesB","32",76,"easy",2.09,1
"1597","linesB","32",77,"easy",1.347,1
"1598","linesB","32",78,"absent",7.304,1
"1599","linesB","32",79,"absent",7.441,1
"1600","linesB","32",80,"absent",7.728,1
"1601","linesB","32",81,"absent",6.288,1
"1602","linesB","32",82,"absent",6.073,1
"1603","linesB","32",83,"hard",5.183,0
"1604","linesB","32",84,"absent",6.205,1
"1605","linesB","32",85,"hard",5.811,0
"1606","linesB","32",86,"absent",7.983,1
"1607","linesB","32",87,"absent",5.567,1
"1608","linesB","32",88,"easy",0.96,1
"1609","linesB","32",89,"hard",6.164,0
"1610","linesB","32",90,"absent",5.83,1
"1611","linesB","32",91,"hard",5.2,1
"1612","linesB","32",92,"absent",7.845,1
"1613","linesB","32",93,"absent",7.999,1
"1614","linesB","32",94,"absent",6.007,1
"1615","linesB","32",95,"easy",2.096,0
"1616","linesB","32",96,"absent",6.466,1
"1617","linesB","32",97,"absent",7.156,1
"1618","linesB","32",98,"absent",5.569,1
"1619","linesB","32",99,"hard",5.531,1
"1620","linesB","32",100,"easy",1.192,1
"1621","linesB","32",101,"hard",8.24,1
"1622","linesB","32",102,"absent",7.638,1
"1623","linesB","32",103,"absent",8.503,1
"1624","linesB","32",104,"easy",2.066,1
"1625","linesB","32",105,"absent",9.285,1
"1626","linesB","32",106,"absent",7.332,1
"1627","linesB","32",107,"absent",5.252,1
"1628","linesB","32",108,"easy",0.994,1
"1629","linesB","32",109,"easy",1.028,1
"1630","linesB","32",110,"hard",4.979,0
"1631","linesB","32",111,"hard",7.993,0
"1632","linesB","32",112,"easy",1.13,1
"1633","linesB","33",17,"easy",1.092,1
"1634","linesB","33",18,"absent",5.746,0
"1635","linesB","33",19,"absent",6.682,1
"1636","linesB","33",20,"easy",0.854,1
"1637","linesB","33",21,"absent",3.512,1
"1638","linesB","33",22,"absent",2.587,0
"1639","linesB","33",23,"absent",7.839,1
"1640","linesB","33",24,"hard",1.712,1
"1641","linesB","33",25,"easy",1.599,1
"1642","linesB","33",26,"easy",1.187,1
"1643","linesB","33",27,"hard",2.835,1
"1644","linesB","33",28,"absent",2.137,0
"1645","linesB","33",29,"absent",1.878,0
"1646","linesB","33",30,"easy",1.158,1
"1647","linesB","33",31,"absent",5.385,1
"1648","linesB","33",32,"absent",5.165,1
"1649","linesB","33",33,"hard",3.572,1
"1650","linesB","33",34,"absent",4.87,1
"1651","linesB","33",35,"hard",2.314,1
"1652","linesB","33",36,"hard",2.322,1
"1653","linesB","33",37,"absent",2.184,0
"1654","linesB","33",38,"absent",1.363,0
"1655","linesB","33",39,"hard",4.999,0
"1656","linesB","33",40,"easy",3.316,1
"1657","linesB","33",41,"absent",7.779,1
"1658","linesB","33",42,"easy",1.594,1
"1659","linesB","33",43,"easy",1.415,1
"1660","linesB","33",44,"easy",1.181,1
"1661","linesB","33",45,"absent",6.424,1
"1662","linesB","33",46,"absent",4.673,1
"1663","linesB","33",47,"hard",3.324,1
"1664","linesB","33",48,"hard",6.063,0
"1665","linesB","33",49,"easy",0.821,1
"1666","linesB","33",50,"absent",8.264,1
"1667","linesB","33",51,"absent",3.979,0
"1668","linesB","33",52,"absent",9.187,1
"1669","linesB","33",53,"absent",7.721,0
"1670","linesB","33",54,"hard",4.791,1
"1671","linesB","33",55,"hard",2.781,1
"1672","linesB","33",56,"hard",6.664,0
"1673","linesB","33",57,"easy",0.983,1
"1674","linesB","33",58,"easy",0.924,1
"1675","linesB","33",59,"absent",8.813,1
"1676","linesB","33",60,"absent",10.018,1
"1677","linesB","33",61,"hard",6.87,0
"1678","linesB","33",62,"absent",9.512,1
"1679","linesB","33",63,"absent",6.668,1
"1680","linesB","33",64,"absent",7.184,1
"1681","linesB","33",65,"easy",0.823,1
"1682","linesB","33",66,"absent",7.483,1
"1683","linesB","33",67,"absent",5.472,1
"1684","linesB","33",68,"absent",8.607,1
"1685","linesB","33",69,"absent",8.966,1
"1686","linesB","33",70,"absent",5.996,1
"1687","linesB","33",71,"easy",0.978,1
"1688","linesB","33",72,"hard",11.096,0
"1689","linesB","33",73,"easy",0.772,1
"1690","linesB","33",74,"absent",13.199,1
"1691","linesB","33",75,"absent",4.588,0
"1692","linesB","33",76,"absent",8.719,1
"1693","linesB","33",77,"absent",8.101,1
"1694","linesB","33",78,"hard",7.16,1
"1695","linesB","33",79,"easy",0.793,1
"1696","linesB","33",80,"easy",0.792,1
"1697","linesB","33",81,"easy",0.839,1
"1698","linesB","33",82,"hard",4.313,1
"1699","linesB","33",83,"hard",3.424,1
"1700","linesB","33",84,"absent",6.8,0
"1701","linesB","33",85,"absent",9.054,0
"1702","linesB","33",86,"hard",6.592,0
"1703","linesB","33",87,"hard",10.296,1
"1704","linesB","33",88,"absent",7.449,1
"1705","linesB","33",89,"absent",1.807,0
"1706","linesB","33",90,"absent",9.57,1
"1707","linesB","33",91,"absent",5.994,1
"1708","linesB","33",92,"easy",0.685,1
"1709","linesB","33",93,"easy",0.879,1
"1710","linesB","33",94,"easy",1.206,1
"1711","linesB","33",95,"absent",3.155,0
"1712","linesB","33",96,"absent",13.404,1
"1713","linesB","33",97,"hard",13.603,0
"1714","linesB","33",98,"absent",8.211,0
"1715","linesB","33",99,"absent",5.529,0
"1716","linesB","33",100,"absent",6.717,0
"1717","linesB","33",101,"easy",0.868,1
"1718","linesB","33",102,"hard",13.58,0
"1719","linesB","33",103,"hard",13.526,1
"1720","linesB","33",104,"hard",12.751,1
"1721","linesB","33",105,"hard",10.974,0
"1722","linesB","33",106,"easy",0.786,1
"1723","linesB","33",107,"easy",0.724,1
"1724","linesB","33",108,"absent",11.934,1
"1725","linesB","33",109,"hard",0.776,1
"1726","linesB","33",110,"absent",8.217,1
"1727","linesB","33",111,"absent",10.716,1
"1728","linesB","33",112,"absent",7.742,1
"1729","linesB","34",17,"easy",1.8,1
"1730","linesB","34",18,"hard",2.391,1
"1731","linesB","34",19,"easy",0.895,1
"1732","linesB","34",20,"hard",5.271,1
"1733","linesB","34",21,"easy",2.215,1
"1734","linesB","34",22,"absent",11.523,1
"1735","linesB","34",23,"absent",11.013,1
"1736","linesB","34",24,"easy",1.701,1
"1737","linesB","34",25,"hard",8.477,0
"1738","linesB","34",26,"absent",9.907,1
"1739","linesB","34",27,"absent",7.629,1
"1740","linesB","34",28,"absent",13.179,1
"1741","linesB","34",29,"absent",5.291,0
"1742","linesB","34",30,"absent",13.968,1
"1743","linesB","34",31,"easy",1.518,1
"1744","linesB","34",32,"absent",9.159,1
"1745","linesB","34",33,"hard",7.189,0
"1746","linesB","34",34,"easy",1.487,1
"1747","linesB","34",35,"absent",14.45,1
"1748","linesB","34",36,"absent",9.099,1
"1749","linesB","34",37,"absent",12.839,1
"1750","linesB","34",38,"absent",9.127,1
"1751","linesB","34",39,"hard",9.509,0
"1752","linesB","34",40,"hard",3.114,0
"1753","linesB","34",41,"absent",9.019,1
"1754","linesB","34",42,"absent",8.043,1
"1755","linesB","34",43,"absent",11.558,1
"1756","linesB","34",44,"absent",7.116,1
"1757","linesB","34",45,"easy",7.156,1
"1758","linesB","34",46,"easy",0.994,1
"1759","linesB","34",47,"hard",4.624,1
"1760","linesB","34",48,"absent",9.054,1
"1761","linesB","34",49,"easy",0.932,1
"1762","linesB","34",50,"absent",8.932,1
"1763","linesB","34",51,"absent",10.209,1
"1764","linesB","34",52,"easy",1.27,1
"1765","linesB","34",53,"absent",10.435,1
"1766","linesB","34",54,"hard",12.181,0
"1767","linesB","34",55,"absent",10.761,1
"1768","linesB","34",56,"absent",12.246,1
"1769","linesB","34",57,"hard",11.094,0
"1770","linesB","34",58,"easy",1.235,1
"1771","linesB","34",59,"hard",11.477,1
"1772","linesB","34",60,"hard",6.893,1
"1773","linesB","34",61,"absent",13.392,1
"1774","linesB","34",62,"easy",0.972,1
"1775","linesB","34",63,"hard",1.202,1
"1776","linesB","34",64,"absent",14.525,1
"1777","linesB","34",65,"absent",8.094,1
"1778","linesB","34",66,"easy",1.445,1
"1779","linesB","34",67,"absent",12.118,1
"1780","linesB","34",68,"hard",15.592,1
"1781","linesB","34",69,"absent",11.777,1
"1782","linesB","34",70,"hard",2.005,1
"1783","linesB","34",71,"hard",19.923,0
"1784","linesB","34",72,"absent",9.972,1
"1785","linesB","34",73,"easy",1.478,1
"1786","linesB","34",74,"hard",3.077,1
"1787","linesB","34",75,"absent",21.482,1
"1788","linesB","34",76,"easy",0.787,1
"1789","linesB","34",77,"absent",12.914,0
"1790","linesB","34",78,"hard",11.605,0
"1791","linesB","34",79,"absent",12.546,1
"1792","linesB","34",80,"absent",5.345,0
"1793","linesB","34",81,"absent",17.948,1
"1794","linesB","34",82,"absent",9.918,0
"1795","linesB","34",83,"easy",1.219,1
"1796","linesB","34",84,"easy",1.021,1
"1797","linesB","34",85,"absent",11.003,1
"1798","linesB","34",86,"easy",0.613,1
"1799","linesB","34",87,"absent",8.941,1
"1800","linesB","34",88,"hard",4.626,1
"1801","linesB","34",89,"easy",0.701,1
"1802","linesB","34",90,"easy",0.72,1
"1803","linesB","34",91,"absent",8.846,1
"1804","linesB","34",92,"easy",0.862,1
"1805","linesB","34",93,"absent",7.841,1
"1806","linesB","34",94,"hard",8.997,1
"1807","linesB","34",95,"hard",1.28,1
"1808","linesB","34",96,"absent",9.269,1
"1809","linesB","34",97,"absent",8.768,0
"1810","linesB","34",98,"absent",7.514,1
"1811","linesB","34",99,"absent",10.695,1
"1812","linesB","34",100,"hard",3.39,1
"1813","linesB","34",101,"absent",8.814,1
"1814","linesB","34",102,"hard",5.05,0
"1815","linesB","34",103,"absent",14.585,1
"1816","linesB","34",104,"hard",10.435,0
"1817","linesB","34",105,"easy",0.725,1
"1818","linesB","34",106,"absent",6.467,1
"1819","linesB","34",107,"easy",0.71,1
"1820","linesB","34",108,"hard",5.535,0
"1821","linesB","34",109,"absent",9.075,1
"1822","linesB","34",110,"absent",12.443,1
"1823","linesB","34",111,"easy",0.652,1
"1824","linesB","34",112,"absent",6.225,0
"1825","linesB","35",17,"easy",1.092,1
"1826","linesB","35",18,"hard",8.816,1
"1827","linesB","35",19,"easy",23.011,0
"1828","linesB","35",20,"hard",8.252,1
"1829","linesB","35",21,"easy",1.702,1
"1830","linesB","35",22,"absent",11.728,0
"1831","linesB","35",23,"absent",12.424,0
"1832","linesB","35",24,"easy",1.014,1
"1833","linesB","35",25,"hard",13.288,0
"1834","linesB","35",26,"absent",17.158,0
"1835","linesB","35",27,"absent",2.361,0
"1836","linesB","35",28,"absent",13.591,1
"1837","linesB","35",29,"absent",15.554,0
"1838","linesB","35",30,"absent",19.587,1
"1839","linesB","35",31,"easy",1.682,1
"1840","linesB","35",32,"absent",3.107,0
"1841","linesB","35",33,"hard",12.65,0
"1842","linesB","35",34,"easy",2.15,1
"1843","linesB","35",35,"absent",36.18,1
"1844","linesB","35",36,"absent",18,1
"1845","linesB","35",37,"absent",14.025,1
"1846","linesB","35",38,"absent",20.396,1
"1847","linesB","35",39,"hard",20.046,0
"1848","linesB","35",40,"hard",13.549,1
"1849","linesB","35",41,"absent",10.103,1
"1850","linesB","35",42,"absent",21.52,1
"1851","linesB","35",43,"absent",14.12,0
"1852","linesB","35",44,"absent",26.118,1
"1853","linesB","35",45,"easy",12.191,1
"1854","linesB","35",46,"easy",1.771,1
"1855","linesB","35",47,"hard",1.562,1
"1856","linesB","35",48,"absent",14.432,1
"1857","linesB","35",49,"easy",4.517,1
"1858","linesB","35",50,"absent",23.079,1
"1859","linesB","35",51,"absent",14.872,1
"1860","linesB","35",52,"easy",1.408,1
"1861","linesB","35",53,"absent",12.322,0
"1862","linesB","35",54,"hard",8.574,0
"1863","linesB","35",55,"absent",28.246,1
"1864","linesB","35",56,"absent",9.534,1
"1865","linesB","35",57,"hard",16.917,0
"1866","linesB","35",58,"easy",4.213,1
"1867","linesB","35",59,"hard",21.701,0
"1868","linesB","35",60,"hard",29.123,0
"1869","linesB","35",61,"absent",10.534,0
"1870","linesB","35",62,"easy",1.02,1
"1871","linesB","35",63,"hard",16.493,1
"1872","linesB","35",64,"absent",14.938,1
"1873","linesB","35",65,"absent",8.525,1
"1874","linesB","35",66,"easy",0.908,1
"1875","linesB","35",67,"absent",26.422,1
"1876","linesB","35",68,"hard",18.366,0
"1877","linesB","35",69,"absent",17.898,1
"1878","linesB","35",70,"hard",23.165,0
"1879","linesB","35",71,"hard",20.768,0
"1880","linesB","35",72,"absent",39.359,1
"1881","linesB","35",73,"easy",26.61,1
"1882","linesB","35",74,"hard",14.345,1
"1883","linesB","35",75,"absent",11.925,1
"1884","linesB","35",76,"easy",2.094,1
"1885","linesB","35",77,"absent",15.153,1
"1886","linesB","35",78,"hard",14.49,0
"1887","linesB","35",79,"absent",27.263,1
"1888","linesB","35",80,"absent",30.454,1
"1889","linesB","35",81,"absent",16.161,1
"1890","linesB","35",82,"absent",20.862,0
"1891","linesB","35",83,"easy",1.153,1
"1892","linesB","35",84,"easy",4.208,1
"1893","linesB","35",85,"absent",18.484,1
"1894","linesB","35",86,"easy",0.923,1
"1895","linesB","35",87,"absent",12.196,1
"1896","linesB","35",88,"hard",3.229,1
"1897","linesB","35",89,"easy",0.77,1
"1898","linesB","35",90,"easy",0.905,1
"1899","linesB","35",91,"absent",20.327,1
"1900","linesB","35",92,"easy",0.947,1
"1901","linesB","35",93,"absent",8.962,1
"1902","linesB","35",94,"hard",10.44,0
"1903","linesB","35",95,"hard",3.039,1
"1904","linesB","35",96,"absent",23.433,1
"1905","linesB","35",97,"absent",19.918,1
"1906","linesB","35",98,"absent",22.462,1
"1907","linesB","35",99,"absent",8.073,1
"1908","linesB","35",100,"hard",15.337,0
"1909","linesB","35",101,"absent",21.781,1
"1910","linesB","35",102,"hard",17.891,1
"1911","linesB","35",103,"absent",34.457,1
"1912","linesB","35",104,"hard",7.477,1
"1913","linesB","35",105,"easy",0.995,1
"1914","linesB","35",106,"absent",17.236,1
"1915","linesB","35",107,"easy",0.7,1
"1916","linesB","35",108,"hard",0.802,1
"1917","linesB","35",109,"absent",25.824,1
"1918","linesB","35",110,"absent",29.166,1
"1919","linesB","35",111,"easy",1.123,1
"1920","linesB","35",112,"absent",13.863,1
"1921","linesB","41",17,"easy",0.886,1
"1922","linesB","41",18,"absent",2.042,1
"1923","linesB","41",19,"easy",0.713,1
"1924","linesB","41",20,"absent",2.367,1
"1925","linesB","41",21,"easy",0.626,1
"1926","linesB","41",22,"absent",1.559,1
"1927","linesB","41",23,"easy",1.535,0
"1928","linesB","41",24,"absent",5.764,1
"1929","linesB","41",25,"hard",6.156,0
"1930","linesB","41",26,"hard",7.382,0
"1931","linesB","41",27,"easy",0.795,1
"1932","linesB","41",28,"hard",6.478,0
"1933","linesB","41",29,"absent",4.596,0
"1934","linesB","41",30,"absent",9.215,1
"1935","linesB","41",31,"absent",6.065,1
"1936","linesB","41",32,"absent",7.332,1
"1937","linesB","41",33,"hard",9.171,0
"1938","linesB","41",34,"absent",9.644,1
"1939","linesB","41",35,"hard",7.566,0
"1940","linesB","41",36,"easy",0.637,1
"1941","linesB","41",37,"absent",2.717,0
"1942","linesB","41",38,"absent",11.138,1
"1943","linesB","41",39,"hard",2.873,1
"1944","linesB","41",40,"absent",9.231,1
"1945","linesB","41",41,"easy",0.94,1
"1946","linesB","41",42,"absent",7.599,1
"1947","linesB","41",43,"absent",8.628,1
"1948","linesB","41",44,"absent",6.606,1
"1949","linesB","41",45,"hard",7.14,1
"1950","linesB","41",46,"absent",6.745,0
"1951","linesB","41",47,"hard",10.218,1
"1952","linesB","41",48,"absent",10.083,1
"1953","linesB","41",49,"easy",1.424,1
"1954","linesB","41",50,"absent",8.594,1
"1955","linesB","41",51,"hard",10.936,0
"1956","linesB","41",52,"absent",6.159,0
"1957","linesB","41",53,"absent",13.033,1
"1958","linesB","41",54,"absent",11.916,1
"1959","linesB","41",55,"easy",0.674,1
"1960","linesB","41",56,"absent",9.992,1
"1961","linesB","41",57,"hard",9.976,0
"1962","linesB","41",58,"easy",1.14,1
"1963","linesB","41",59,"absent",13.354,1
"1964","linesB","41",60,"hard",10.892,0
"1965","linesB","41",61,"easy",0.758,1
"1966","linesB","41",62,"absent",13.199,1
"1967","linesB","41",63,"easy",0.731,1
"1968","linesB","41",64,"hard",8.773,0
"1969","linesB","41",65,"easy",0.647,1
"1970","linesB","41",66,"absent",7.907,1
"1971","linesB","41",67,"absent",6.908,1
"1972","linesB","41",68,"hard",7.088,1
"1973","linesB","41",69,"absent",10.522,1
"1974","linesB","41",70,"absent",7.9,1
"1975","linesB","41",71,"easy",0.649,1
"1976","linesB","41",72,"absent",11.347,1
"1977","linesB","41",73,"absent",8.436,1
"1978","linesB","41",74,"absent",10.395,1
"1979","linesB","41",75,"easy",0.734,1
"1980","linesB","41",76,"absent",9.485,1
"1981","linesB","41",77,"hard",9.234,0
"1982","linesB","41",78,"hard",11.77,0
"1983","linesB","41",79,"hard",13.627,0
"1984","linesB","41",80,"hard",19.017,0
"1985","linesB","41",81,"easy",0.708,1
"1986","linesB","41",82,"absent",13.298,1
"1987","linesB","41",83,"easy",0.891,1
"1988","linesB","41",84,"absent",11.259,1
"1989","linesB","41",85,"easy",0.77,1
"1990","linesB","41",86,"hard",14.864,0
"1991","linesB","41",87,"absent",14.003,1
"1992","linesB","41",88,"absent",11.755,0
"1993","linesB","41",89,"easy",0.984,1
"1994","linesB","41",90,"absent",12.002,1
"1995","linesB","41",91,"absent",15.765,1
"1996","linesB","41",92,"hard",15.113,1
"1997","linesB","41",93,"hard",20.502,0
"1998","linesB","41",94,"absent",14.055,1
"1999","linesB","41",95,"absent",11.665,1
"2000","linesB","41",96,"hard",1.832,1
"2001","linesB","41",97,"easy",1.544,1
"2002","linesB","41",98,"absent",17.323,1
"2003","linesB","41",99,"absent",15.492,1
"2004","linesB","41",100,"easy",0.675,1
"2005","linesB","41",101,"absent",10.222,1
"2006","linesB","41",102,"absent",16.894,1
"2007","linesB","41",103,"easy",1.24,1
"2008","linesB","41",104,"hard",18.884,0
"2009","linesB","41",105,"absent",6.914,0
"2010","linesB","41",106,"absent",3.283,0
"2011","linesB","41",107,"absent",11.57,1
"2012","linesB","41",108,"easy",0.793,1
"2013","linesB","41",109,"easy",0.816,1
"2014","linesB","41",110,"hard",8.122,1
"2015","linesB","41",111,"hard",4.444,1
"2016","linesB","41",112,"absent",14.685,1
"2017","linesB","42",17,"absent",14.33,1
"2018","linesB","42",18,"absent",12.938,1
"2019","linesB","42",19,"absent",18.741,1
"2020","linesB","42",20,"absent",14.103,1
"2021","linesB","42",21,"absent",14.276,1
"2022","linesB","42",22,"hard",16.165,0
"2023","linesB","42",23,"easy",1.392,1
"2024","linesB","42",24,"absent",17.753,1
"2025","linesB","42",25,"hard",15.722,1
"2026","linesB","42",26,"absent",7.709,1
"2027","linesB","42",27,"hard",2.274,1
"2028","linesB","42",28,"absent",2.89,0
"2029","linesB","42",29,"absent",3.313,0
"2030","linesB","42",30,"easy",1.251,1
"2031","linesB","42",31,"absent",11.807,1
"2032","linesB","42",32,"easy",1.479,1
"2033","linesB","42",33,"absent",13.807,0
"2034","linesB","42",34,"hard",1.815,1
"2035","linesB","42",35,"hard",7.875,0
"2036","linesB","42",36,"hard",8.322,0
"2037","linesB","42",37,"absent",16.742,1
"2038","linesB","42",38,"easy",12.701,0
"2039","linesB","42",39,"easy",2.047,1
"2040","linesB","42",40,"easy",1.499,1
"2041","linesB","42",41,"hard",14.115,1
"2042","linesB","42",42,"absent",2.882,0
"2043","linesB","42",43,"absent",1.422,0
"2044","linesB","42",44,"hard",18.336,0
"2045","linesB","42",45,"absent",9.051,1
"2046","linesB","42",46,"absent",13.478,1
"2047","linesB","42",47,"absent",10.831,0
"2048","linesB","42",48,"absent",15.844,0
"2049","linesB","42",49,"absent",4.631,1
"2050","linesB","42",50,"absent",3.03,1
"2051","linesB","42",51,"absent",2.085,1
"2052","linesB","42",52,"hard",4.117,0
"2053","linesB","42",53,"hard",11.56,0
"2054","linesB","42",54,"absent",14.926,0
"2055","linesB","42",55,"easy",5.351,1
"2056","linesB","42",56,"absent",8.07,1
"2057","linesB","42",57,"easy",14.786,0
"2058","linesB","42",58,"easy",1.49,1
"2059","linesB","42",59,"easy",7.536,1
"2060","linesB","42",60,"absent",23.062,0
"2061","linesB","42",61,"hard",14.503,0
"2062","linesB","42",62,"easy",1.636,1
"2063","linesB","42",63,"hard",19.655,1
"2064","linesB","42",64,"easy",3.058,1
"2065","linesB","42",65,"absent",6.051,0
"2066","linesB","42",66,"easy",1.304,1
"2067","linesB","42",67,"hard",6.801,1
"2068","linesB","42",68,"absent",3.108,0
"2069","linesB","42",69,"easy",1.135,1
"2070","linesB","42",70,"easy",4.278,1
"2071","linesB","42",71,"absent",14.815,1
"2072","linesB","42",72,"absent",6.184,1
"2073","linesB","42",73,"absent",5.037,0
"2074","linesB","42",74,"absent",11.991,0
"2075","linesB","42",75,"absent",12.624,0
"2076","linesB","42",76,"absent",4.179,0
"2077","linesB","42",77,"absent",1.788,0
"2078","linesB","42",78,"easy",1.269,1
"2079","linesB","42",79,"easy",2.164,1
"2080","linesB","42",80,"hard",1.871,1
"2081","linesB","42",81,"hard",5.424,1
"2082","linesB","42",82,"absent",7.502,1
"2083","linesB","42",83,"absent",10.558,1
"2084","linesB","42",84,"hard",10.757,0
"2085","linesB","42",85,"easy",1.165,1
"2086","linesB","42",86,"hard",7.334,0
"2087","linesB","42",87,"absent",7.397,0
"2088","linesB","42",88,"hard",3.357,1
"2089","linesB","42",89,"absent",3.769,0
"2090","linesB","42",90,"easy",1.154,1
"2091","linesB","42",91,"absent",9.895,1
"2092","linesB","42",92,"hard",3.314,1
"2093","linesB","42",93,"absent",8.746,0
"2094","linesB","42",94,"easy",1.389,1
"2095","linesB","42",95,"absent",3.764,0
"2096","linesB","42",96,"easy",0.954,1
"2097","linesB","42",97,"absent",1.951,0
"2098","linesB","42",98,"absent",10.784,1
"2099","linesB","42",99,"absent",2.884,1
"2100","linesB","42",100,"easy",2.177,0
"2101","linesB","42",101,"easy",0.926,1
"2102","linesB","42",102,"absent",4.725,0
"2103","linesB","42",103,"hard",6.586,1
"2104","linesB","42",104,"easy",1.081,1
"2105","linesB","42",105,"absent",2.897,0
"2106","linesB","42",106,"absent",3.237,0
"2107","linesB","42",107,"hard",2.571,1
"2108","linesB","42",108,"absent",2.458,0
"2109","linesB","42",109,"hard",9.855,1
"2110","linesB","42",110,"absent",9.361,0
"2111","linesB","42",111,"hard",3.021,0
"2112","linesB","42",112,"hard",1.763,1
"2113","linesB","43",17,"easy",2.525,1
"2114","linesB","43",18,"hard",5.045,0
"2115","linesB","43",19,"easy",3.898,1
"2116","linesB","43",20,"hard",9.319,0
"2117","linesB","43",21,"easy",5.266,1
"2118","linesB","43",22,"absent",10.063,1
"2119","linesB","43",23,"absent",11.386,0
"2120","linesB","43",24,"easy",12.435,1
"2121","linesB","43",25,"hard",15.666,0
"2122","linesB","43",26,"absent",3.843,0
"2123","linesB","43",27,"absent",13.05,1
"2124","linesB","43",28,"absent",17.663,1
"2125","linesB","43",29,"absent",16.814,0
"2126","linesB","43",30,"absent",13.916,0
"2127","linesB","43",31,"easy",4.23,1
"2128","linesB","43",32,"absent",16.765,1
"2129","linesB","43",33,"hard",19.54,0
"2130","linesB","43",34,"easy",1.646,1
"2131","linesB","43",35,"absent",22.973,1
"2132","linesB","43",36,"absent",19.247,1
"2133","linesB","43",37,"absent",22.919,1
"2134","linesB","43",38,"absent",22.143,1
"2135","linesB","43",39,"hard",16.464,0
"2136","linesB","43",40,"hard",21.973,1
"2137","linesB","43",41,"absent",18.649,1
"2138","linesB","43",42,"absent",21.716,0
"2139","linesB","43",43,"absent",31.085,1
"2140","linesB","43",44,"absent",23.501,1
"2141","linesB","43",45,"easy",1.674,1
"2142","linesB","43",46,"easy",1.632,1
"2143","linesB","43",47,"hard",28.912,1
"2144","linesB","43",48,"absent",21.031,1
"2145","linesB","43",49,"easy",1.499,1
"2146","linesB","43",50,"absent",18.33,1
"2147","linesB","43",51,"absent",25.117,1
"2148","linesB","43",52,"easy",0.955,1
"2149","linesB","43",53,"absent",20.314,1
"2150","linesB","43",54,"hard",17.608,0
"2151","linesB","43",55,"absent",25.694,1
"2152","linesB","43",56,"absent",22.036,1
"2153","linesB","43",57,"hard",19.711,0
"2154","linesB","43",58,"easy",1.736,1
"2155","linesB","43",59,"hard",19.165,1
"2156","linesB","43",60,"hard",24.942,1
"2157","linesB","43",61,"absent",32.963,1
"2158","linesB","43",62,"easy",1.252,1
"2159","linesB","43",63,"hard",20.656,0
"2160","linesB","43",64,"absent",24.885,1
"2161","linesB","43",65,"absent",11.673,1
"2162","linesB","43",66,"easy",1.175,1
"2163","linesB","43",67,"absent",24.978,1
"2164","linesB","43",68,"hard",23.617,0
"2165","linesB","43",69,"absent",28.893,1
"2166","linesB","43",70,"hard",3.318,1
"2167","linesB","43",71,"hard",18.68,1
"2168","linesB","43",72,"absent",28.701,1
"2169","linesB","43",73,"easy",1.371,1
"2170","linesB","43",74,"hard",26.243,0
"2171","linesB","43",75,"absent",30.175,1
"2172","linesB","43",76,"easy",1.304,1
"2173","linesB","43",77,"absent",19.623,1
"2174","linesB","43",78,"hard",22.005,0
"2175","linesB","43",79,"absent",26.084,1
"2176","linesB","43",80,"absent",26.86,1
"2177","linesB","43",81,"absent",34.272,1
"2178","linesB","43",82,"absent",17.324,1
"2179","linesB","43",83,"easy",1.136,1
"2180","linesB","43",84,"easy",0.96,1
"2181","linesB","43",85,"absent",21.555,1
"2182","linesB","43",86,"easy",0.842,1
"2183","linesB","43",87,"absent",26.357,1
"2184","linesB","43",88,"hard",18.342,0
"2185","linesB","43",89,"easy",0.833,1
"2186","linesB","43",90,"easy",0.694,1
"2187","linesB","43",91,"absent",18.632,1
"2188","linesB","43",92,"easy",0.996,1
"2189","linesB","43",93,"absent",7.969,1
"2190","linesB","43",94,"hard",20.737,0
"2191","linesB","43",95,"hard",22.624,0
"2192","linesB","43",96,"absent",30.867,1
"2193","linesB","43",97,"absent",25.396,1
"2194","linesB","43",98,"absent",15.811,1
"2195","linesB","43",99,"absent",19.487,1
"2196","linesB","43",100,"hard",15.675,0
"2197","linesB","43",101,"absent",31.911,1
"2198","linesB","43",102,"hard",13.002,1
"2199","linesB","43",103,"absent",16.968,1
"2200","linesB","43",104,"hard",9.482,0
"2201","linesB","43",105,"easy",0.989,1
"2202","linesB","43",106,"absent",11.217,1
"2203","linesB","43",107,"easy",0.853,1
"2204","linesB","43",108,"hard",24.937,0
"2205","linesB","43",109,"absent",24.705,1
"2206","linesB","43",110,"absent",19.096,1
"2207","linesB","43",111,"easy",0.911,1
"2208","linesB","43",112,"absent",18.408,1
"2209","linesB","44",17,"easy",0.923,1
"2210","linesB","44",18,"hard",2.306,0
"2211","linesB","44",19,"easy",1.216,1
"2212","linesB","44",20,"hard",2.229,0
"2213","linesB","44",21,"easy",0.816,1
"2214","linesB","44",22,"absent",3.076,1
"2215","linesB","44",23,"absent",2.451,1
"2216","linesB","44",24,"easy",2.162,1
"2217","linesB","44",25,"hard",2.702,0
"2218","linesB","44",26,"absent",2.913,1
"2219","linesB","44",27,"absent",2.794,0
"2220","linesB","44",28,"absent",2.021,1
"2221","linesB","44",29,"absent",2.1,1
"2222","linesB","44",30,"absent",2.223,1
"2223","linesB","44",31,"easy",1.171,1
"2224","linesB","44",32,"absent",2.921,1
"2225","linesB","44",33,"hard",2.457,1
"2226","linesB","44",34,"easy",1.13,1
"2227","linesB","44",35,"absent",2.5,1
"2228","linesB","44",36,"absent",2.638,0
"2229","linesB","44",37,"absent",1.217,1
"2230","linesB","44",38,"absent",1.767,1
"2231","linesB","44",39,"hard",1.784,1
"2232","linesB","44",40,"hard",1.289,1
"2233","linesB","44",41,"absent",1.44,1
"2234","linesB","44",42,"absent",2.126,0
"2235","linesB","44",43,"absent",1.495,0
"2236","linesB","44",44,"absent",1.248,1
"2237","linesB","44",45,"easy",1.986,1
"2238","linesB","44",46,"easy",0.793,1
"2239","linesB","44",47,"hard",1.851,0
"2240","linesB","44",48,"absent",2.68,1
"2241","linesB","44",49,"easy",0.715,1
"2242","linesB","44",50,"absent",2.147,1
"2243","linesB","44",51,"absent",1.723,1
"2244","linesB","44",52,"easy",0.83,1
"2245","linesB","44",53,"absent",2.289,1
"2246","linesB","44",54,"hard",2.054,1
"2247","linesB","44",55,"absent",2.386,1
"2248","linesB","44",56,"absent",2.65,1
"2249","linesB","44",57,"hard",2.714,0
"2250","linesB","44",58,"easy",0.832,1
"2251","linesB","44",59,"hard",2.747,0
"2252","linesB","44",60,"hard",2.787,1
"2253","linesB","44",61,"absent",2.79,1
"2254","linesB","44",62,"easy",0.692,1
"2255","linesB","44",63,"hard",2.092,1
"2256","linesB","44",64,"absent",3.082,1
"2257","linesB","44",65,"absent",2.516,1
"2258","linesB","44",66,"easy",0.651,1
"2259","linesB","44",67,"absent",3.892,1
"2260","linesB","44",68,"hard",3.744,0
"2261","linesB","44",69,"absent",4.361,1
"2262","linesB","44",70,"hard",4.054,0
"2263","linesB","44",71,"hard",1.192,1
"2264","linesB","44",72,"absent",3.598,1
"2265","linesB","44",73,"easy",1.012,1
"2266","linesB","44",74,"hard",1.85,1
"2267","linesB","44",75,"absent",3.756,1
"2268","linesB","44",76,"easy",0.669,1
"2269","linesB","44",77,"absent",4.119,1
"2270","linesB","44",78,"hard",3.707,1
"2271","linesB","44",79,"absent",3.806,1
"2272","linesB","44",80,"absent",3.371,1
"2273","linesB","44",81,"absent",3.686,1
"2274","linesB","44",82,"absent",2.819,1
"2275","linesB","44",83,"easy",0.687,1
"2276","linesB","44",84,"easy",0.745,1
"2277","linesB","44",85,"absent",3.217,1
"2278","linesB","44",86,"easy",0.686,1
"2279","linesB","44",87,"absent",2.876,1
"2280","linesB","44",88,"hard",1.884,1
"2281","linesB","44",89,"easy",0.58,1
"2282","linesB","44",90,"easy",0.677,1
"2283","linesB","44",91,"absent",2.626,1
"2284","linesB","44",92,"easy",0.709,1
"2285","linesB","44",93,"absent",3.012,1
"2286","linesB","44",94,"hard",1.571,1
"2287","linesB","44",95,"hard",1.75,1
"2288","linesB","44",96,"absent",2.63,1
"2289","linesB","44",97,"absent",3.033,1
"2290","linesB","44",98,"absent",2.664,1
"2291","linesB","44",99,"absent",3.098,1
"2292","linesB","44",100,"hard",3.151,0
"2293","linesB","44",101,"absent",3.284,1
"2294","linesB","44",102,"hard",2.853,0
"2295","linesB","44",103,"absent",4.435,1
"2296","linesB","44",104,"hard",4.402,0
"2297","linesB","44",105,"easy",0.912,1
"2298","linesB","44",106,"absent",3.473,1
"2299","linesB","44",107,"easy",0.712,1
"2300","linesB","44",108,"hard",1.595,1
"2301","linesB","44",109,"absent",5.166,1
"2302","linesB","44",110,"absent",4.923,1
"2303","linesB","44",111,"easy",0.852,1
"2304","linesB","44",112,"absent",6.086,1
"2305","linesB","45",17,"easy",1.319,1
"2306","linesB","45",18,"hard",19.348,0
"2307","linesB","45",19,"easy",2.344,1
"2308","linesB","45",20,"hard",27.413,0
"2309","linesB","45",21,"easy",1.195,1
"2310","linesB","45",22,"absent",26.792,0
"2311","linesB","45",23,"absent",24.665,0
"2312","linesB","45",24,"easy",1.862,1
"2313","linesB","45",25,"hard",34.162,1
"2314","linesB","45",26,"absent",33.998,0
"2315","linesB","45",27,"absent",7.735,0
"2316","linesB","45",28,"absent",34.065,1
"2317","linesB","45",29,"absent",26.885,1
"2318","linesB","45",30,"absent",37.471,1
"2319","linesB","45",31,"easy",2.173,1
"2320","linesB","45",32,"absent",27.372,0
"2321","linesB","45",33,"hard",27.953,0
"2322","linesB","45",34,"easy",1.093,1
"2323","linesB","45",35,"absent",39.27,1
"2324","linesB","45",36,"absent",21.714,1
"2325","linesB","45",37,"absent",17.923,0
"2326","linesB","45",38,"absent",23.665,0
"2327","linesB","45",39,"hard",8.87,1
"2328","linesB","45",40,"hard",3.71,1
"2329","linesB","45",41,"absent",41.738,1
"2330","linesB","45",42,"absent",20.762,1
"2331","linesB","45",43,"absent",35.213,1
"2332","linesB","45",44,"absent",28.173,1
"2333","linesB","45",45,"easy",18.228,0
"2334","linesB","45",46,"easy",1.247,1
"2335","linesB","45",47,"hard",32.662,0
"2336","linesB","45",48,"absent",32.131,1
"2337","linesB","45",49,"easy",1.086,1
"2338","linesB","45",50,"absent",28.813,1
"2339","linesB","45",51,"absent",20.428,1
"2340","linesB","45",52,"easy",1.68,1
"2341","linesB","45",53,"absent",37.026,1
"2342","linesB","45",54,"hard",3.278,1
"2343","linesB","45",55,"absent",25.958,1
"2344","linesB","45",56,"absent",19.148,1
"2345","linesB","45",57,"hard",25.63,0
"2346","linesB","45",58,"easy",1.867,1
"2347","linesB","45",59,"hard",14.394,1
"2348","linesB","45",60,"hard",7.996,1
"2349","linesB","45",61,"absent",30.21,1
"2350","linesB","45",62,"easy",1.49,1
"2351","linesB","45",63,"hard",7.159,1
"2352","linesB","45",64,"absent",31.551,1
"2353","linesB","45",65,"absent",6.957,0
"2354","linesB","45",66,"easy",1.113,1
"2355","linesB","45",67,"absent",26.59,1
"2356","linesB","45",68,"hard",34.876,0
"2357","linesB","45",69,"absent",6.764,0
"2358","linesB","45",70,"hard",4.321,1
"2359","linesB","45",71,"hard",32.225,0
"2360","linesB","45",72,"absent",34.241,1
"2361","linesB","45",73,"easy",1.363,1
"2362","linesB","45",74,"hard",31.309,0
"2363","linesB","45",75,"absent",39.428,1
"2364","linesB","45",76,"easy",1.183,1
"2365","linesB","45",77,"absent",31.38,1
"2366","linesB","45",78,"hard",34.799,0
"2367","linesB","45",79,"absent",37.669,1
"2368","linesB","45",80,"absent",33.645,1
"2369","linesB","45",81,"absent",24.324,1
"2370","linesB","45",82,"absent",33.363,1
"2371","linesB","45",83,"easy",1.139,1
"2372","linesB","45",84,"easy",1.265,1
"2373","linesB","45",85,"absent",35.332,1
"2374","linesB","45",86,"easy",1.039,1
"2375","linesB","45",87,"absent",35.374,1
"2376","linesB","45",88,"hard",20.065,0
"2377","linesB","45",89,"easy",0.941,1
"2378","linesB","45",90,"easy",0.961,1
"2379","linesB","45",91,"absent",40.613,1
"2380","linesB","45",92,"easy",1.451,1
"2381","linesB","45",93,"absent",31.289,1
"2382","linesB","45",94,"hard",31.028,1
"2383","linesB","45",95,"hard",7.111,1
"2384","linesB","45",96,"absent",33.454,1
"2385","linesB","45",97,"absent",3.19,0
"2386","linesB","45",98,"absent",31.341,1
"2387","linesB","45",99,"absent",29.85,1
"2388","linesB","45",100,"hard",22.896,0
"2389","linesB","45",101,"absent",40.246,1
"2390","linesB","45",102,"hard",19.866,1
"2391","linesB","45",103,"absent",35.693,1
"2392","linesB","45",104,"hard",35.277,0
"2393","linesB","45",105,"easy",1.127,1
"2394","linesB","45",106,"absent",28.276,1
"2395","linesB","45",107,"easy",1.091,1
"2396","linesB","45",108,"hard",31.087,0
"2397","linesB","45",109,"absent",26.788,1
"2398","linesB","45",110,"absent",29.384,1
"2399","linesB","45",111,"easy",0.93,1
"2400","linesB","45",112,"absent",34.74,1
"2401","linesB","51",17,"easy",1.541,1
"2402","linesB","51",18,"hard",1.277,0
"2403","linesB","51",19,"easy",2.25,1
"2404","linesB","51",20,"hard",4.924,0
"2405","linesB","51",21,"easy",0.92,1
"2406","linesB","51",22,"absent",2.947,1
"2407","linesB","51",23,"absent",4.165,1
"2408","linesB","51",24,"easy",1.828,0
"2409","linesB","51",25,"hard",2.948,1
"2410","linesB","51",26,"absent",1.991,0
"2411","linesB","51",27,"absent",1.664,1
"2412","linesB","51",28,"absent",3.048,1
"2413","linesB","51",29,"absent",1.141,1
"2414","linesB","51",30,"absent",0.872,1
"2415","linesB","51",31,"easy",1.846,0
"2416","linesB","51",32,"absent",0.868,0
"2417","linesB","51",33,"hard",1.131,0
"2418","linesB","51",34,"easy",1.067,1
"2419","linesB","51",35,"absent",4.298,1
"2420","linesB","51",36,"absent",4.473,0
"2421","linesB","51",37,"absent",3.267,1
"2422","linesB","51",38,"absent",2.78,1
"2423","linesB","51",39,"hard",3.603,0
"2424","linesB","51",40,"hard",1.419,1
"2425","linesB","51",41,"absent",5.961,1
"2426","linesB","51",42,"absent",4.643,1
"2427","linesB","51",43,"absent",5.381,1
"2428","linesB","51",44,"absent",4.927,0
"2429","linesB","51",45,"easy",1.645,1
"2430","linesB","51",46,"easy",1.51,1
"2431","linesB","51",47,"hard",1.339,1
"2432","linesB","51",48,"absent",0.905,0
"2433","linesB","51",49,"easy",2.426,1
"2434","linesB","51",50,"absent",4.151,0
"2435","linesB","51",51,"absent",5.351,1
"2436","linesB","51",52,"easy",3.184,0
"2437","linesB","51",53,"absent",6.396,1
"2438","linesB","51",54,"hard",1.357,0
"2439","linesB","51",55,"absent",5.244,1
"2440","linesB","51",56,"absent",4.399,1
"2441","linesB","51",57,"hard",8.763,0
"2442","linesB","51",58,"easy",1.955,1
"2443","linesB","51",59,"hard",5.9,1
"2444","linesB","51",60,"hard",5.81,1
"2445","linesB","51",61,"absent",2.343,0
"2446","linesB","51",62,"easy",2.734,0
"2447","linesB","51",63,"hard",3.235,1
"2448","linesB","51",64,"absent",2.302,0
"2449","linesB","51",65,"absent",6.004,0
"2450","linesB","51",66,"easy",1.31,1
"2451","linesB","51",67,"absent",7.416,1
"2452","linesB","51",68,"hard",1.42,1
"2453","linesB","51",69,"absent",5.105,0
"2454","linesB","51",70,"hard",1.36,1
"2455","linesB","51",71,"hard",7.28,0
"2456","linesB","51",72,"absent",2.611,0
"2457","linesB","51",73,"easy",1.858,0
"2458","linesB","51",74,"hard",5.775,0
"2459","linesB","51",75,"absent",1.782,0
"2460","linesB","51",76,"easy",4.324,1
"2461","linesB","51",77,"absent",7.657,0
"2462","linesB","51",78,"hard",3.515,0
"2463","linesB","51",79,"absent",2.792,0
"2464","linesB","51",80,"absent",0.927,1
"2465","linesB","51",81,"absent",4.698,1
"2466","linesB","51",82,"absent",3.408,1
"2467","linesB","51",83,"easy",1.507,1
"2468","linesB","51",84,"easy",1.483,1
"2469","linesB","51",85,"absent",6.093,1
"2470","linesB","51",86,"easy",1.34,1
"2471","linesB","51",87,"absent",2.534,0
"2472","linesB","51",88,"hard",8.361,0
"2473","linesB","51",89,"easy",0.837,1
"2474","linesB","51",90,"easy",0.693,1
"2475","linesB","51",91,"absent",1.57,0
"2476","linesB","51",92,"easy",1.786,1
"2477","linesB","51",93,"absent",2.244,1
"2478","linesB","51",94,"hard",1.462,1
"2479","linesB","51",95,"hard",3.87,0
"2480","linesB","51",96,"absent",2.18,0
"2481","linesB","51",97,"absent",2.484,1
"2482","linesB","51",98,"absent",2.824,1
"2483","linesB","51",99,"absent",5.183,1
"2484","linesB","51",100,"hard",1.173,0
"2485","linesB","51",101,"absent",0.962,1
"2486","linesB","51",102,"hard",3.643,1
"2487","linesB","51",103,"absent",4.218,1
"2488","linesB","51",104,"hard",1.526,1
"2489","linesB","51",105,"easy",1.032,1
"2490","linesB","51",106,"absent",1.96,1
"2491","linesB","51",107,"easy",0.93,1
"2492","linesB","51",108,"hard",7.02,0
"2493","linesB","51",109,"absent",5.492,1
"2494","linesB","51",110,"absent",3.763,1
"2495","linesB","51",111,"easy",1.401,1
"2496","linesB","51",112,"absent",3.043,1
"2497","linesB","52",17,"easy",4.176,1
"2498","linesB","52",18,"hard",13.172,0
"2499","linesB","52",19,"easy",4.02,1
"2500","linesB","52",20,"hard",17.9,0
"2501","linesB","52",21,"easy",4.165,1
"2502","linesB","52",22,"absent",11.176,1
"2503","linesB","52",23,"absent",7.541,1
"2504","linesB","52",24,"easy",10.045,0
"2505","linesB","52",25,"hard",11.199,1
"2506","linesB","52",26,"absent",16.149,1
"2507","linesB","52",27,"absent",9.721,1
"2508","linesB","52",28,"absent",7.268,1
"2509","linesB","52",29,"absent",8.579,1
"2510","linesB","52",30,"absent",12.631,1
"2511","linesB","52",31,"easy",2.032,1
"2512","linesB","52",32,"absent",8.278,1
"2513","linesB","52",33,"hard",10.465,0
"2514","linesB","52",34,"easy",11.532,0
"2515","linesB","52",35,"absent",12.019,1
