condition	 subNum	 trialNo	 fixNo	 xFix	 xFixFlip	 yFix	 targSide	 trialType	 easySide	 accuracy	 RT
linesB	 1	 17	 1	 509	 -3	 370	 absent	 properTrial	 right	 1	 2.122
linesB	 1	 18	 1	 505	 -7	 385	 absent	 properTrial	 right	 1	 4.414
linesB	 1	 19	 1	 506	 -6	 393	 right	 properTrial	 right	 0	 1.154
linesB	 1	 20	 1	 517	 5	 378	 left	 properTrial	 right	 0	 4.699
linesB	 1	 21	 1	 506	 -6	 386	 left	 properTrial	 right	 1	 5.774
linesB	 1	 22	 1	 503	 -9	 365	 absent	 properTrial	 right	 1	 8.267
linesB	 1	 23	 1	 518	 -6	 363	 left	 properTrial	 left	 1	 2.657
linesB	 1	 24	 1	 515	 -3	 354	 right	 properTrial	 left	 1	 4.162
linesB	 1	 25	 1	 515	 3	 366	 absent	 properTrial	 right	 0	 2.677
linesB	 1	 26	 1	 508	 4	 381	 right	 properTrial	 left	 1	 3.428
linesB	 1	 27	 1	 519	 7	 389	 absent	 properTrial	 right	 0	 2.485
linesB	 1	 28	 1	 523	 11	 368	 right	 properTrial	 right	 1	 1.117
linesB	 1	 29	 1	 529	 -17	 361	 absent	 properTrial	 left	 0	 2.685
linesB	 1	 30	 1	 505	 -7	 382	 right	 properTrial	 right	 1	 0.988
linesB	 1	 31	 1	 530	 -18	 346	 absent	 properTrial	 left	 0	 3.243
linesB	 1	 32	 1	 518	 -6	 376	 absent	 properTrial	 left	 1	 9.866
linesB	 1	 33	 1	 513	 1	 371	 absent	 properTrial	 right	 0	 7.014
linesB	 1	 34	 1	 515	 -3	 362	 left	 properTrial	 left	 1	 1.511
linesB	 1	 35	 1	 529	 -17	 351	 right	 properTrial	 left	 0	 5.919
linesB	 1	 36	 1	 508	 -4	 385	 left	 properTrial	 right	 0	 6.528
linesB	 1	 37	 1	 508	 4	 376	 absent	 properTrial	 left	 0	 2.261
linesB	 1	 38	 1	 528	 16	 368	 absent	 properTrial	 right	 1	 8.198
linesB	 1	 39	 1	 511	 -1	 376	 absent	 properTrial	 right	 1	 3.375
linesB	 1	 40	 1	 512	 0	 377	 right	 properTrial	 right	 1	 7.309
linesB	 1	 41	 1	 520	 -8	 375	 absent	 properTrial	 left	 1	 6.068
linesB	 1	 42	 1	 510	 -2	 371	 left	 properTrial	 right	 0	 4.851
linesB	 1	 43	 1	 504	 8	 391	 absent	 properTrial	 left	 1	 7.560
linesB	 1	 44	 1	 521	 -9	 356	 absent	 properTrial	 left	 0	 6.723
linesB	 1	 45	 1	 513	 1	 369	 left	 properTrial	 right	 1	 4.502
linesB	 1	 46	 1	 520	 -8	 368	 absent	 properTrial	 left	 1	 13.184
linesB	 1	 47	 1	 527	 -15	 362	 left	 properTrial	 left	 1	 3.927
linesB	 1	 48	 1	 535	 -23	 385	 right	 properTrial	 left	 1	 7.292
linesB	 1	 49	 1	 524	 12	 362	 absent	 properTrial	 right	 0	 8.425
linesB	 1	 50	 1	 505	 7	 387	 right	 properTrial	 left	 1	 1.814
linesB	 1	 51	 1	 511	 -1	 396	 absent	 properTrial	 right	 0	 8.780
linesB	 1	 52	 1	 506	 6	 380	 absent	 properTrial	 left	 0	 7.768
linesB	 1	 53	 1	 509	 -3	 373	 absent	 properTrial	 right	 0	 2.588
linesB	 1	 54	 1	 502	 -10	 365	 right	 properTrial	 right	 1	 1.407
linesB	 1	 55	 1	 542	 30	 365	 right	 properTrial	 right	 1	 1.197
linesB	 1	 56	 1	 532	 -20	 362	 right	 properTrial	 left	 1	 9.166
linesB	 1	 57	 1	 532	 -20	 364	 left	 properTrial	 left	 1	 1.397
linesB	 1	 58	 1	 527	 15	 409	 absent	 properTrial	 right	 1	 12.911
linesB	 1	 59	 1	 510	 2	 372	 absent	 properTrial	 left	 0	 8.331
linesB	 1	 60	 1	 499	 13	 379	 absent	 properTrial	 left	 1	 9.404
linesB	 1	 61	 1	 520	 8	 358	 right	 properTrial	 right	 0	 1.011
linesB	 1	 62	 1	 518	 -6	 367	 left	 properTrial	 left	 1	 1.063
linesB	 1	 63	 1	 519	 -7	 359	 right	 properTrial	 left	 1	 2.809
linesB	 1	 64	 1	 525	 13	 361	 absent	 properTrial	 right	 1	 9.350
linesB	 1	 65	 1	 503	 -9	 375	 left	 properTrial	 right	 0	 6.742
linesB	 1	 66	 1	 498	 14	 391	 absent	 properTrial	 left	 1	 8.474
linesB	 1	 67	 1	 524	 -12	 353	 left	 properTrial	 left	 1	 1.108
linesB	 1	 68	 1	 515	 3	 343	 absent	 properTrial	 right	 1	 8.808
linesB	 1	 69	 1	 504	 8	 367	 absent	 properTrial	 left	 1	 9.662
linesB	 1	 70	 1	 501	 -11	 365	 absent	 properTrial	 right	 0	 4.838
linesB	 1	 71	 1	 507	 -5	 375	 absent	 properTrial	 right	 1	 12.420
linesB	 1	 72	 1	 503	 -9	 378	 left	 properTrial	 right	 1	 5.914
linesB	 1	 73	 1	 506	 6	 371	 absent	 properTrial	 left	 1	 12.456
linesB	 1	 74	 1	 511	 -1	 369	 absent	 properTrial	 right	 1	 8.998
linesB	 1	 75	 1	 504	 8	 370	 left	 properTrial	 left	 1	 1.658
linesB	 1	 76	 1	 519	 7	 370	 right	 properTrial	 right	 1	 0.858
linesB	 1	 77	 1	 515	 -3	 368	 right	 properTrial	 left	 1	 10.804
linesB	 1	 78	 1	 512	 0	 370	 right	 properTrial	 left	 1	 12.761
linesB	 1	 79	 1	 517	 -5	 370	 absent	 properTrial	 left	 0	 8.001
linesB	 1	 80	 1	 499	 13	 382	 left	 properTrial	 left	 1	 1.023
linesB	 1	 81	 1	 520	 8	 377	 left	 properTrial	 right	 0	 9.886
linesB	 1	 82	 1	 505	 -7	 371	 left	 properTrial	 right	 0	 10.456
linesB	 1	 83	 1	 501	 11	 370	 absent	 properTrial	 left	 1	 16.509
linesB	 1	 84	 1	 508	 -4	 364	 right	 properTrial	 right	 1	 1.246
linesB	 1	 85	 1	 510	 2	 352	 left	 properTrial	 left	 1	 1.025
linesB	 1	 86	 1	 518	 -6	 374	 absent	 properTrial	 left	 1	 7.936
linesB	 1	 87	 1	 501	 11	 373	 absent	 properTrial	 left	 1	 9.265
linesB	 1	 88	 1	 506	 6	 376	 absent	 properTrial	 left	 1	 12.364
linesB	 1	 89	 1	 524	 -12	 352	 absent	 properTrial	 left	 1	 8.055
linesB	 1	 90	 1	 520	 -8	 370	 right	 properTrial	 left	 0	 4.290
linesB	 1	 91	 1	 503	 -9	 368	 right	 properTrial	 right	 1	 2.398
linesB	 1	 92	 1	 518	 6	 362	 left	 properTrial	 right	 0	 14.348
linesB	 1	 93	 1	 514	 2	 377	 left	 properTrial	 right	 1	 4.003
linesB	 1	 94	 1	 512	 0	 368	 absent	 properTrial	 left	 1	 14.259
linesB	 1	 95	 1	 537	 -25	 358	 absent	 properTrial	 left	 0	 2.250
linesB	 1	 96	 1	 514	 2	 375	 absent	 properTrial	 right	 1	 10.861
linesB	 1	 97	 1	 506	 -6	 374	 right	 properTrial	 right	 1	 1.077
linesB	 1	 98	 1	 526	 -14	 349	 right	 properTrial	 left	 1	 4.106
linesB	 1	 99	 1	 523	 -11	 363	 left	 properTrial	 left	 1	 1.003
linesB	 1	 100	 1	 539	 -27	 352	 left	 properTrial	 left	 1	 0.878
linesB	 1	 101	 1	 530	 18	 368	 left	 properTrial	 right	 1	 4.609
linesB	 1	 102	 1	 519	 -7	 357	 absent	 properTrial	 left	 1	 10.874
linesB	 1	 103	 1	 526	 -14	 366	 right	 properTrial	 left	 1	 7.626
linesB	 1	 104	 1	 532	 20	 347	 absent	 properTrial	 right	 1	 11.333
linesB	 1	 105	 1	 506	 6	 354	 left	 properTrial	 left	 1	 1.004
linesB	 1	 106	 1	 520	 -8	 331	 absent	 properTrial	 left	 1	 8.266
linesB	 1	 107	 1	 516	 4	 370	 absent	 properTrial	 right	 1	 9.669
linesB	 1	 108	 1	 519	 7	 371	 absent	 properTrial	 right	 1	 13.158
linesB	 1	 109	 1	 528	 16	 359	 right	 properTrial	 right	 1	 1.127
linesB	 1	 110	 1	 521	 9	 352	 absent	 properTrial	 right	 1	 14.156
linesB	 1	 111	 1	 526	 14	 360	 absent	 properTrial	 right	 1	 6.467
linesB	 1	 112	 1	 510	 2	 364	 absent	 properTrial	 left	 1	 8.537
linesB	 2	 17	 1	 473	 39	 385	 left	 properTrial	 left	 1	 1.493
linesB	 2	 18	 1	 473	 39	 396	 right	 properTrial	 left	 0	 8.317
linesB	 2	 19	 1	 474	 -38	 404	 right	 properTrial	 right	 1	 6.727
linesB	 2	 20	 1	 472	 -40	 399	 left	 properTrial	 right	 0	 11.401
linesB	 2	 21	 1	 470	 42	 414	 left	 properTrial	 left	 1	 1.384
linesB	 2	 22	 1	 484	 -28	 401	 absent	 properTrial	 right	 1	 9.623
linesB	 2	 23	 1	 464	 -48	 397	 absent	 properTrial	 right	 1	 14.057
linesB	 2	 24	 1	 491	 -21	 403	 right	 properTrial	 right	 1	 1.170
linesB	 2	 25	 1	 474	 38	 388	 right	 properTrial	 left	 1	 6.007
linesB	 2	 26	 1	 479	 33	 393	 absent	 properTrial	 left	 1	 12.551
linesB	 2	 27	 1	 512	 0	 420	 absent	 properTrial	 left	 1	 13.119
linesB	 2	 28	 1	 482	 30	 412	 absent	 properTrial	 left	 1	 14.181
linesB	 2	 29	 1	 497	 15	 435	 absent	 properTrial	 left	 0	 15.023
linesB	 2	 30	 1	 481	 -31	 420	 absent	 properTrial	 right	 1	 10.275
linesB	 2	 31	 1	 483	 -29	 413	 right	 properTrial	 right	 1	 1.082
linesB	 2	 32	 1	 492	 20	 410	 absent	 properTrial	 left	 1	 9.266
linesB	 2	 33	 1	 482	 -30	 404	 left	 properTrial	 right	 0	 6.403
linesB	 2	 34	 1	 486	 -26	 413	 right	 properTrial	 right	 1	 0.814
linesB	 2	 35	 1	 490	 22	 419	 absent	 properTrial	 left	 0	 9.529
linesB	 2	 36	 1	 487	 25	 409	 absent	 properTrial	 left	 1	 10.255
linesB	 2	 37	 1	 480	 32	 412	 absent	 properTrial	 left	 1	 6.503
linesB	 2	 38	 1	 483	 -29	 392	 absent	 properTrial	 right	 1	 5.738
linesB	 2	 39	 1	 462	 -50	 408	 left	 properTrial	 right	 0	 8.766
linesB	 2	 40	 1	 481	 -31	 420	 left	 properTrial	 right	 0	 10.197
linesB	 2	 41	 1	 466	 46	 402	 absent	 properTrial	 left	 1	 8.761
linesB	 2	 42	 1	 487	 25	 401	 absent	 properTrial	 left	 0	 9.170
linesB	 2	 43	 1	 458	 -54	 407	 absent	 properTrial	 right	 1	 6.858
linesB	 2	 44	 1	 489	 -23	 436	 absent	 properTrial	 right	 0	 8.623
linesB	 2	 45	 1	 485	 27	 435	 left	 properTrial	 left	 0	 9.486
linesB	 2	 46	 1	 487	 -25	 428	 right	 properTrial	 right	 1	 0.904
linesB	 2	 47	 1	 477	 35	 423	 right	 properTrial	 left	 0	 10.331
linesB	 2	 48	 1	 484	 -28	 413	 absent	 properTrial	 right	 0	 3.437
linesB	 2	 49	 1	 487	 -25	 412	 right	 properTrial	 right	 1	 0.781
linesB	 2	 50	 1	 498	 14	 410	 absent	 properTrial	 left	 1	 9.994
linesB	 2	 51	 1	 488	 -24	 398	 absent	 properTrial	 right	 1	 9.701
linesB	 2	 52	 1	 486	 -26	 418	 right	 properTrial	 right	 1	 1.081
linesB	 2	 53	 1	 454	 -58	 420	 absent	 properTrial	 right	 1	 11.728
linesB	 2	 54	 1	 490	 -22	 367	 left	 properTrial	 right	 1	 6.313
linesB	 2	 55	 1	 456	 56	 425	 absent	 properTrial	 left	 0	 8.054
linesB	 2	 56	 1	 550	 38	 390	 absent	 properTrial	 right	 1	 13.765
linesB	 2	 57	 1	 575	 63	 417	 left	 properTrial	 right	 1	 4.303
linesB	 2	 58	 1	 553	 41	 423	 right	 properTrial	 right	 1	 0.925
linesB	 2	 59	 1	 522	 10	 409	 left	 properTrial	 right	 0	 8.712
linesB	 2	 60	 1	 585	 73	 436	 left	 properTrial	 right	 1	 10.596
linesB	 2	 61	 1	 464	 48	 415	 absent	 properTrial	 left	 0	 7.717
linesB	 2	 62	 1	 483	 -29	 429	 right	 properTrial	 right	 1	 0.794
linesB	 2	 63	 1	 461	 51	 409	 right	 properTrial	 left	 1	 3.161
linesB	 2	 64	 1	 494	 18	 436	 absent	 properTrial	 left	 0	 2.317
linesB	 2	 65	 1	 562	 -50	 384	 absent	 properTrial	 left	 0	 6.188
linesB	 2	 66	 1	 570	 -58	 391	 left	 properTrial	 left	 1	 0.774
linesB	 2	 67	 1	 496	 -16	 397	 absent	 properTrial	 right	 1	 13.722
linesB	 2	 68	 1	 476	 -36	 410	 left	 properTrial	 right	 0	 13.003
linesB	 2	 69	 1	 499	 -13	 410	 absent	 properTrial	 right	 1	 14.571
linesB	 2	 70	 1	 486	 26	 427	 right	 properTrial	 left	 0	 14.434
linesB	 2	 71	 1	 467	 -45	 396	 left	 properTrial	 right	 1	 10.961
linesB	 2	 72	 1	 480	 32	 428	 absent	 properTrial	 left	 1	 14.455
linesB	 2	 73	 1	 465	 -47	 407	 right	 properTrial	 right	 1	 0.990
linesB	 2	 74	 1	 477	 35	 397	 right	 properTrial	 left	 0	 11.458
linesB	 2	 75	 1	 492	 -20	 410	 absent	 properTrial	 right	 1	 13.623
linesB	 2	 76	 1	 494	 -18	 415	 right	 properTrial	 right	 1	 0.714
linesB	 2	 77	 1	 487	 -25	 433	 absent	 properTrial	 right	 1	 10.261
linesB	 2	 78	 1	 493	 -19	 432	 left	 properTrial	 right	 0	 6.194
linesB	 2	 79	 1	 475	 -37	 388	 absent	 properTrial	 right	 0	 10.577
linesB	 2	 80	 1	 464	 -48	 413	 absent	 properTrial	 right	 1	 9.445
linesB	 2	 81	 1	 490	 22	 405	 absent	 properTrial	 left	 1	 7.881
linesB	 2	 82	 1	 497	 15	 370	 absent	 properTrial	 left	 1	 11.338
linesB	 2	 83	 1	 495	 -17	 392	 right	 properTrial	 right	 1	 0.995
linesB	 2	 84	 1	 493	 19	 420	 left	 properTrial	 left	 1	 0.937
linesB	 2	 85	 1	 500	 12	 415	 absent	 properTrial	 left	 1	 10.816
linesB	 2	 86	 1	 457	 -55	 418	 right	 properTrial	 right	 1	 0.741
linesB	 2	 87	 1	 492	 20	 414	 absent	 properTrial	 left	 1	 9.744
linesB	 2	 88	 1	 497	 -15	 415	 left	 properTrial	 right	 1	 6.074
linesB	 2	 89	 1	 494	 18	 397	 left	 properTrial	 left	 1	 0.996
linesB	 2	 90	 1	 494	 18	 377	 left	 properTrial	 left	 1	 0.613
linesB	 2	 91	 1	 499	 13	 410	 absent	 properTrial	 left	 1	 7.932
linesB	 2	 92	 1	 483	 29	 399	 left	 properTrial	 left	 1	 0.775
linesB	 2	 93	 1	 497	 15	 390	 absent	 properTrial	 left	 1	 7.366
linesB	 2	 94	 1	 494	 -18	 436	 left	 properTrial	 right	 0	 6.619
linesB	 2	 95	 1	 481	 31	 430	 right	 properTrial	 left	 0	 7.890
linesB	 2	 96	 1	 483	 -29	 402	 absent	 properTrial	 right	 0	 6.141
linesB	 2	 97	 1	 490	 22	 421	 absent	 properTrial	 left	 1	 9.235
linesB	 2	 98	 1	 482	 -30	 427	 absent	 properTrial	 right	 1	 10.222
linesB	 2	 99	 1	 0	 0	 0	 absent	 properTrial	 right	 1	 11.715
linesB	 2	 100	 1	 480	 -32	 422	 left	 properTrial	 right	 0	 14.284
linesB	 2	 101	 1	 482	 -30	 431	 absent	 properTrial	 right	 1	 10.160
linesB	 2	 102	 1	 488	 24	 425	 right	 properTrial	 left	 0	 8.334
linesB	 2	 103	 1	 486	 26	 419	 absent	 properTrial	 left	 1	 10.253
linesB	 2	 104	 1	 485	 -27	 417	 left	 properTrial	 right	 0	 11.764
linesB	 2	 105	 1	 495	 -17	 429	 right	 properTrial	 right	 1	 0.709
linesB	 2	 106	 1	 497	 15	 418	 absent	 properTrial	 left	 1	 9.575
linesB	 2	 107	 1	 490	 22	 409	 left	 properTrial	 left	 1	 0.582
linesB	 2	 108	 1	 487	 25	 416	 right	 properTrial	 left	 1	 4.498
linesB	 2	 109	 1	 488	 -24	 410	 absent	 properTrial	 right	 1	 7.008
linesB	 2	 110	 1	 0	 0	 0	 absent	 properTrial	 right	 1	 10.198
linesB	 2	 111	 1	 490	 -22	 360	 right	 properTrial	 right	 1	 0.671
linesB	 2	 112	 1	 497	 15	 409	 absent	 properTrial	 left	 1	 11.033
linesB	 3	 17	 1	 513	 -1	 390	 left	 properTrial	 left	 1	 0.902
linesB	 3	 18	 1	 512	 0	 388	 right	 properTrial	 left	 0	 5.547
linesB	 3	 19	 1	 491	 -21	 400	 right	 properTrial	 right	 1	 0.953
linesB	 3	 20	 1	 0	 0	 0	 left	 properTrial	 right	 0	 6.409
linesB	 3	 21	 1	 502	 10	 408	 left	 properTrial	 left	 1	 0.948
linesB	 3	 22	 1	 501	 -11	 399	 absent	 properTrial	 right	 1	 7.193
linesB	 3	 23	 1	 501	 -11	 386	 absent	 properTrial	 right	 1	 8.535
linesB	 3	 24	 1	 500	 -12	 403	 right	 properTrial	 right	 1	 1.518
linesB	 3	 25	 1	 508	 4	 392	 right	 properTrial	 left	 0	 9.277
linesB	 3	 26	 1	 494	 18	 410	 absent	 properTrial	 left	 1	 11.529
linesB	 3	 27	 1	 494	 18	 416	 absent	 properTrial	 left	 1	 7.452
linesB	 3	 28	 1	 503	 9	 412	 absent	 properTrial	 left	 1	 8.579
linesB	 3	 29	 1	 508	 4	 400	 absent	 properTrial	 left	 1	 11.518
linesB	 3	 30	 1	 507	 -5	 384	 absent	 properTrial	 right	 1	 8.641
linesB	 3	 31	 1	 505	 -7	 409	 right	 properTrial	 right	 1	 1.274
linesB	 3	 32	 1	 515	 -3	 383	 absent	 properTrial	 left	 1	 8.530
linesB	 3	 33	 1	 500	 -12	 394	 left	 properTrial	 right	 1	 11.926
linesB	 3	 34	 1	 502	 -10	 412	 right	 properTrial	 right	 1	 1.110
linesB	 3	 35	 1	 512	 0	 407	 absent	 properTrial	 left	 1	 12.597
linesB	 3	 36	 1	 494	 18	 415	 absent	 properTrial	 left	 1	 10.762
linesB	 3	 37	 1	 510	 2	 412	 absent	 properTrial	 left	 0	 8.021
linesB	 3	 38	 1	 496	 -16	 426	 absent	 properTrial	 right	 1	 12.105
linesB	 3	 39	 1	 513	 1	 387	 left	 properTrial	 right	 0	 9.359
linesB	 3	 40	 1	 507	 -5	 399	 left	 properTrial	 right	 0	 4.978
linesB	 3	 41	 1	 512	 0	 412	 absent	 properTrial	 left	 1	 5.201
linesB	 3	 42	 1	 505	 7	 404	 absent	 properTrial	 left	 0	 5.839
linesB	 3	 43	 1	 484	 -28	 427	 absent	 properTrial	 right	 1	 10.553
linesB	 3	 44	 1	 503	 -9	 410	 absent	 properTrial	 right	 1	 7.424
linesB	 3	 45	 1	 505	 7	 414	 left	 properTrial	 left	 1	 1.584
linesB	 3	 46	 1	 495	 -17	 398	 right	 properTrial	 right	 1	 1.142
linesB	 3	 47	 1	 501	 11	 409	 right	 properTrial	 left	 0	 10.651
linesB	 3	 48	 1	 502	 -10	 432	 absent	 properTrial	 right	 1	 10.603
linesB	 3	 49	 1	 492	 -20	 381	 right	 properTrial	 right	 1	 0.709
linesB	 3	 50	 1	 501	 11	 392	 absent	 properTrial	 left	 1	 9.570
linesB	 3	 51	 1	 501	 -11	 423	 absent	 properTrial	 right	 1	 5.740
linesB	 3	 52	 1	 494	 -18	 406	 right	 properTrial	 right	 1	 0.823
linesB	 3	 53	 1	 491	 -21	 423	 absent	 properTrial	 right	 1	 7.704
linesB	 3	 54	 1	 504	 -8	 411	 left	 properTrial	 right	 0	 9.347
linesB	 3	 55	 1	 489	 23	 427	 absent	 properTrial	 left	 0	 7.701
linesB	 3	 56	 1	 493	 -19	 426	 absent	 properTrial	 right	 1	 7.638
linesB	 3	 57	 1	 492	 -20	 417	 left	 properTrial	 right	 0	 9.108
linesB	 3	 58	 1	 488	 -24	 431	 right	 properTrial	 right	 1	 0.945
linesB	 3	 59	 1	 511	 -1	 383	 left	 properTrial	 right	 0	 10.320
linesB	 3	 60	 1	 495	 -17	 431	 left	 properTrial	 right	 0	 10.778
linesB	 3	 61	 1	 485	 27	 410	 absent	 properTrial	 left	 1	 9.414
linesB	 3	 62	 1	 500	 -12	 429	 right	 properTrial	 right	 1	 0.953
linesB	 3	 63	 1	 0	 0	 0	 right	 properTrial	 left	 0	 7.379
linesB	 3	 64	 1	 492	 20	 434	 absent	 properTrial	 left	 1	 9.833
linesB	 3	 65	 1	 520	 -8	 411	 absent	 properTrial	 left	 1	 9.291
linesB	 3	 66	 1	 500	 12	 414	 left	 properTrial	 left	 1	 1.275
linesB	 3	 67	 1	 492	 -20	 412	 absent	 properTrial	 right	 1	 11.413
linesB	 3	 68	 1	 501	 -11	 412	 left	 properTrial	 right	 0	 10.269
linesB	 3	 69	 1	 512	 0	 405	 absent	 properTrial	 right	 1	 5.697
linesB	 3	 70	 1	 515	 -3	 408	 right	 properTrial	 left	 1	 6.974
linesB	 3	 71	 1	 506	 -6	 399	 left	 properTrial	 right	 0	 7.815
linesB	 3	 72	 1	 496	 16	 422	 absent	 properTrial	 left	 1	 8.335
linesB	 3	 73	 1	 507	 -5	 423	 right	 properTrial	 right	 1	 1.184
linesB	 3	 74	 1	 516	 -4	 403	 right	 properTrial	 left	 1	 9.222
linesB	 3	 75	 1	 513	 1	 394	 absent	 properTrial	 right	 0	 9.225
linesB	 3	 76	 1	 507	 -5	 425	 right	 properTrial	 right	 1	 0.943
linesB	 3	 77	 1	 511	 -1	 420	 absent	 properTrial	 right	 0	 7.042
linesB	 3	 78	 1	 495	 -17	 398	 left	 properTrial	 right	 1	 3.537
linesB	 3	 79	 1	 510	 -2	 413	 absent	 properTrial	 right	 1	 9.187
linesB	 3	 80	 1	 505	 -7	 405	 absent	 properTrial	 right	 1	 10.895
linesB	 3	 81	 1	 496	 16	 396	 absent	 properTrial	 left	 1	 10.566
linesB	 3	 82	 1	 508	 4	 414	 absent	 properTrial	 left	 1	 11.479
linesB	 3	 83	 1	 510	 -2	 409	 right	 properTrial	 right	 1	 0.889
linesB	 3	 84	 1	 499	 13	 419	 left	 properTrial	 left	 1	 1.037
linesB	 3	 85	 1	 498	 14	 385	 absent	 properTrial	 left	 1	 13.785
linesB	 3	 86	 1	 508	 -4	 405	 right	 properTrial	 right	 1	 0.704
linesB	 3	 87	 1	 506	 6	 402	 absent	 properTrial	 left	 1	 6.415
linesB	 3	 88	 1	 502	 -10	 423	 left	 properTrial	 right	 0	 8.291
linesB	 3	 89	 1	 509	 3	 376	 left	 properTrial	 left	 1	 0.703
linesB	 3	 90	 1	 488	 24	 392	 left	 properTrial	 left	 1	 0.556
linesB	 3	 91	 1	 339	 173	 466	 absent	 properTrial	 left	 1	 9.310
linesB	 3	 92	 1	 519	 -7	 418	 left	 properTrial	 left	 1	 0.763
linesB	 3	 93	 1	 502	 10	 393	 absent	 properTrial	 left	 1	 9.793
linesB	 3	 94	 1	 499	 -13	 415	 left	 properTrial	 right	 0	 7.993
linesB	 3	 95	 1	 507	 5	 426	 right	 properTrial	 left	 1	 2.774
linesB	 3	 96	 1	 509	 -3	 396	 absent	 properTrial	 right	 1	 10.338
linesB	 3	 97	 1	 486	 26	 407	 absent	 properTrial	 left	 1	 8.397
linesB	 3	 98	 1	 508	 -4	 412	 absent	 properTrial	 right	 1	 9.737
linesB	 3	 99	 1	 478	 -34	 373	 absent	 properTrial	 right	 1	 9.765
linesB	 3	 100	 1	 497	 -15	 385	 left	 properTrial	 right	 0	 5.386
linesB	 3	 101	 1	 494	 -18	 426	 absent	 properTrial	 right	 1	 8.222
linesB	 3	 102	 1	 506	 6	 378	 right	 properTrial	 left	 0	 6.814
linesB	 3	 103	 1	 496	 16	 413	 absent	 properTrial	 left	 1	 10.766
linesB	 3	 104	 1	 511	 -1	 382	 left	 properTrial	 right	 0	 10.083
linesB	 3	 105	 1	 498	 -14	 404	 right	 properTrial	 right	 1	 0.722
linesB	 3	 106	 1	 501	 11	 396	 absent	 properTrial	 left	 1	 8.383
linesB	 3	 107	 1	 502	 10	 411	 left	 properTrial	 left	 1	 0.735
linesB	 3	 108	 1	 502	 10	 399	 right	 properTrial	 left	 0	 7.139
linesB	 3	 109	 1	 512	 0	 415	 absent	 properTrial	 right	 1	 6.643
linesB	 3	 110	 1	 518	 6	 412	 absent	 properTrial	 right	 1	 6.851
linesB	 3	 111	 1	 500	 -12	 385	 right	 properTrial	 right	 1	 0.736
linesB	 3	 112	 1	 503	 9	 392	 absent	 properTrial	 left	 0	 6.555
linesB	 4	 17	 1	 512	 0	 397	 absent	 properTrial	 left	 1	 6.418
linesB	 4	 18	 1	 525	 13	 404	 left	 properTrial	 right	 0	 6.989
linesB	 4	 19	 1	 517	 5	 400	 absent	 properTrial	 right	 1	 11.803
linesB	 4	 20	 1	 501	 11	 369	 absent	 properTrial	 left	 1	 15.117
linesB	 4	 21	 1	 509	 3	 395	 absent	 properTrial	 left	 1	 18.453
linesB	 4	 22	 1	 515	 3	 369	 left	 properTrial	 right	 0	 22.287
linesB	 4	 23	 1	 523	 11	 392	 absent	 properTrial	 right	 1	 17.024
linesB	 4	 24	 1	 512	 0	 399	 left	 properTrial	 right	 0	 23.098
linesB	 4	 25	 1	 534	 22	 405	 absent	 properTrial	 right	 0	 19.430
linesB	 4	 26	 1	 521	 9	 390	 right	 properTrial	 right	 0	 29.470
linesB	 4	 27	 1	 0	 0	 0	 absent	 properTrial	 right	 1	 27.696
linesB	 4	 28	 1	 516	 4	 384	 left	 properTrial	 right	 0	 23.174
linesB	 4	 29	 1	 528	 16	 398	 right	 properTrial	 right	 1	 4.128
linesB	 4	 30	 1	 519	 -7	 401	 absent	 properTrial	 left	 1	 13.692
linesB	 4	 31	 1	 505	 7	 389	 left	 properTrial	 left	 1	 1.002
linesB	 4	 32	 1	 398	 -114	 278	 left	 properTrial	 right	 0	 8.705
linesB	 4	 33	 1	 536	 -24	 417	 left	 properTrial	 left	 1	 0.920
linesB	 4	 34	 1	 509	 3	 382	 left	 properTrial	 left	 1	 0.945
linesB	 4	 35	 1	 524	 -12	 396	 absent	 properTrial	 left	 1	 11.560
linesB	 4	 36	 1	 514	 2	 387	 absent	 properTrial	 right	 0	 5.017
linesB	 4	 37	 1	 536	 -24	 424	 right	 properTrial	 left	 0	 8.730
linesB	 4	 38	 1	 544	 -32	 417	 left	 properTrial	 left	 1	 1.015
linesB	 4	 39	 1	 517	 -5	 403	 absent	 properTrial	 left	 1	 11.039
linesB	 4	 40	 1	 531	 -19	 404	 absent	 properTrial	 left	 1	 7.672
linesB	 4	 41	 1	 543	 -31	 410	 left	 properTrial	 left	 1	 2.929
linesB	 4	 42	 1	 527	 -15	 388	 absent	 properTrial	 left	 1	 4.913
linesB	 4	 43	 1	 536	 24	 406	 absent	 properTrial	 right	 1	 7.518
linesB	 4	 44	 1	 518	 6	 386	 absent	 properTrial	 right	 1	 7.622
linesB	 4	 45	 1	 532	 -20	 388	 absent	 properTrial	 left	 1	 12.066
linesB	 4	 46	 1	 538	 -26	 406	 right	 properTrial	 left	 1	 4.087
linesB	 4	 47	 1	 535	 -23	 392	 left	 properTrial	 left	 1	 1.024
linesB	 4	 48	 1	 548	 -36	 412	 left	 properTrial	 left	 1	 2.022
linesB	 4	 49	 1	 544	 -32	 413	 right	 properTrial	 left	 0	 8.674
linesB	 4	 50	 1	 539	 -27	 421	 absent	 properTrial	 left	 1	 12.916
linesB	 4	 51	 1	 532	 -20	 385	 absent	 properTrial	 left	 1	 6.028
linesB	 4	 52	 1	 525	 -13	 386	 absent	 properTrial	 left	 1	 9.187
linesB	 4	 53	 1	 536	 -24	 376	 left	 properTrial	 left	 1	 0.821
linesB	 4	 54	 1	 531	 -19	 397	 left	 properTrial	 left	 1	 0.773
linesB	 4	 55	 1	 530	 18	 407	 absent	 properTrial	 right	 1	 7.148
linesB	 4	 56	 1	 536	 24	 388	 left	 properTrial	 right	 0	 5.686
linesB	 4	 57	 1	 541	 29	 411	 absent	 properTrial	 right	 1	 10.302
linesB	 4	 58	 1	 535	 23	 397	 left	 properTrial	 right	 0	 9.943
linesB	 4	 59	 1	 552	 40	 426	 absent	 properTrial	 right	 1	 11.978
linesB	 4	 60	 1	 538	 -26	 397	 right	 properTrial	 left	 0	 11.953
linesB	 4	 61	 1	 628	 -116	 275	 left	 properTrial	 left	 1	 0.948
linesB	 4	 62	 1	 523	 11	 400	 left	 properTrial	 right	 0	 12.195
linesB	 4	 63	 1	 539	 -27	 412	 absent	 properTrial	 left	 1	 12.519
linesB	 4	 64	 1	 540	 28	 407	 absent	 properTrial	 right	 1	 10.688
linesB	 4	 65	 1	 539	 -27	 409	 left	 properTrial	 left	 1	 0.935
linesB	 4	 66	 1	 527	 -15	 389	 left	 properTrial	 left	 1	 1.497
linesB	 4	 67	 1	 541	 29	 402	 left	 properTrial	 right	 0	 2.969
linesB	 4	 68	 1	 539	 27	 408	 left	 properTrial	 right	 0	 2.990
linesB	 4	 69	 1	 543	 31	 402	 left	 properTrial	 right	 0	 6.904
linesB	 4	 70	 1	 548	 36	 408	 right	 properTrial	 right	 1	 1.153
linesB	 4	 71	 1	 534	 -22	 401	 right	 properTrial	 left	 0	 9.517
linesB	 4	 72	 1	 548	 36	 420	 absent	 properTrial	 right	 1	 19.688
linesB	 4	 73	 1	 527	 15	 393	 absent	 properTrial	 right	 1	 8.999
linesB	 4	 74	 1	 534	 -22	 400	 absent	 properTrial	 left	 1	 7.192
linesB	 4	 75	 1	 541	 29	 410	 absent	 properTrial	 right	 1	 7.643
linesB	 4	 76	 1	 538	 26	 414	 absent	 properTrial	 right	 1	 8.837
linesB	 4	 77	 1	 547	 35	 427	 absent	 properTrial	 right	 1	 9.048
linesB	 4	 78	 1	 535	 23	 399	 absent	 properTrial	 right	 1	 8.996
linesB	 4	 79	 1	 533	 21	 398	 absent	 properTrial	 right	 1	 6.748
linesB	 4	 80	 1	 541	 29	 420	 absent	 properTrial	 right	 1	 8.661
linesB	 4	 81	 1	 529	 17	 408	 right	 properTrial	 right	 1	 0.727
linesB	 4	 82	 1	 542	 -30	 413	 right	 properTrial	 left	 1	 3.870
linesB	 4	 83	 1	 545	 -33	 408	 absent	 properTrial	 left	 1	 9.801
linesB	 4	 84	 1	 541	 -29	 420	 right	 properTrial	 left	 0	 5.271
linesB	 4	 85	 1	 543	 -31	 420	 left	 properTrial	 left	 1	 0.819
linesB	 4	 86	 1	 531	 19	 422	 absent	 properTrial	 right	 1	 8.730
linesB	 4	 87	 1	 546	 -34	 420	 left	 properTrial	 left	 1	 0.685
linesB	 4	 88	 1	 545	 33	 415	 absent	 properTrial	 right	 1	 7.711
linesB	 4	 89	 1	 539	 27	 411	 absent	 properTrial	 right	 1	 2.953
linesB	 4	 90	 1	 537	 25	 398	 absent	 properTrial	 right	 1	 4.721
linesB	 4	 91	 1	 532	 -20	 407	 absent	 properTrial	 left	 1	 7.365
linesB	 4	 92	 1	 537	 25	 400	 absent	 properTrial	 right	 1	 4.906
linesB	 4	 93	 1	 520	 8	 389	 right	 properTrial	 right	 1	 0.883
linesB	 4	 94	 1	 527	 15	 383	 right	 properTrial	 right	 0	 0.798
linesB	 4	 95	 1	 530	 -18	 401	 absent	 properTrial	 left	 1	 9.193
linesB	 4	 96	 1	 525	 13	 404	 right	 properTrial	 right	 1	 0.937
linesB	 4	 97	 1	 540	 28	 408	 left	 properTrial	 right	 0	 7.820
linesB	 4	 98	 1	 529	 17	 418	 left	 properTrial	 right	 0	 5.009
linesB	 4	 99	 1	 537	 25	 414	 left	 properTrial	 right	 0	 9.449
linesB	 4	 100	 1	 539	 -27	 408	 absent	 properTrial	 left	 1	 20.931
linesB	 4	 101	 1	 0	 0	 0	 right	 properTrial	 left	 0	 16.079
linesB	 4	 102	 1	 473	 -39	 362	 absent	 properTrial	 right	 1	 15.933
linesB	 4	 103	 1	 538	 26	 406	 right	 properTrial	 right	 1	 0.896
linesB	 4	 104	 1	 522	 -10	 397	 right	 properTrial	 left	 1	 12.976
linesB	 4	 105	 1	 541	 29	 417	 right	 properTrial	 right	 1	 0.804
linesB	 4	 106	 1	 540	 -28	 416	 absent	 properTrial	 left	 1	 15.679
linesB	 4	 107	 1	 531	 -19	 420	 right	 properTrial	 left	 0	 12.116
linesB	 4	 108	 1	 509	 -3	 374	 absent	 properTrial	 right	 1	 20.036
linesB	 4	 109	 1	 535	 -23	 412	 absent	 properTrial	 left	 1	 17.477
linesB	 4	 110	 1	 519	 7	 388	 right	 properTrial	 right	 1	 1.197
linesB	 4	 111	 1	 526	 -14	 392	 absent	 properTrial	 left	 1	 11.870
linesB	 4	 112	 1	 528	 16	 408	 absent	 properTrial	 right	 1	 13.050
linesB	 5	 17	 1	 526	 -14	 406	 left	 properTrial	 left	 1	 1.550
linesB	 5	 18	 1	 537	 -25	 374	 right	 properTrial	 left	 0	 15.591
linesB	 5	 19	 1	 533	 21	 405	 right	 properTrial	 right	 1	 5.686
linesB	 5	 20	 1	 529	 17	 403	 left	 properTrial	 right	 0	 7.898
linesB	 5	 21	 1	 533	 -21	 404	 left	 properTrial	 left	 1	 1.129
linesB	 5	 22	 1	 527	 15	 404	 absent	 properTrial	 right	 0	 11.079
linesB	 5	 23	 1	 538	 26	 402	 absent	 properTrial	 right	 1	 15.531
linesB	 5	 24	 1	 524	 12	 413	 right	 properTrial	 right	 1	 2.961
linesB	 5	 25	 1	 522	 -10	 379	 right	 properTrial	 left	 1	 5.531
linesB	 5	 26	 1	 548	 -36	 399	 absent	 properTrial	 left	 1	 14.909
linesB	 5	 27	 1	 535	 -23	 380	 absent	 properTrial	 left	 1	 9.779
linesB	 5	 28	 1	 543	 -31	 402	 absent	 properTrial	 left	 1	 12.067
linesB	 5	 29	 1	 0	 0	 0	 absent	 properTrial	 left	 1	 11.983
linesB	 5	 30	 1	 536	 24	 393	 absent	 properTrial	 right	 1	 11.499
linesB	 5	 31	 1	 531	 19	 381	 right	 properTrial	 right	 1	 0.949
linesB	 5	 32	 1	 516	 -4	 407	 absent	 properTrial	 left	 1	 11.938
linesB	 5	 33	 1	 531	 19	 386	 left	 properTrial	 right	 0	 11.321
linesB	 5	 34	 1	 533	 21	 399	 right	 properTrial	 right	 1	 1.023
linesB	 5	 35	 1	 527	 -15	 408	 absent	 properTrial	 left	 1	 12.398
linesB	 5	 36	 1	 527	 -15	 384	 absent	 properTrial	 left	 1	 11.125
linesB	 5	 37	 1	 539	 -27	 407	 absent	 properTrial	 left	 1	 14.030
linesB	 5	 38	 1	 516	 4	 400	 absent	 properTrial	 right	 1	 11.339
linesB	 5	 39	 1	 533	 21	 394	 left	 properTrial	 right	 1	 2.791
linesB	 5	 40	 1	 540	 28	 399	 left	 properTrial	 right	 0	 11.499
linesB	 5	 41	 1	 515	 -3	 402	 absent	 properTrial	 left	 1	 13.383
linesB	 5	 42	 1	 523	 -11	 383	 absent	 properTrial	 left	 1	 12.305
linesB	 5	 43	 1	 573	 61	 321	 absent	 properTrial	 right	 1	 7.535
linesB	 5	 44	 1	 535	 23	 393	 absent	 properTrial	 right	 1	 11.027
linesB	 5	 45	 1	 531	 -19	 387	 left	 properTrial	 left	 0	 13.159
linesB	 5	 46	 1	 537	 25	 400	 right	 properTrial	 right	 1	 1.260
linesB	 5	 47	 1	 526	 -14	 381	 right	 properTrial	 left	 0	 16.779
linesB	 5	 48	 1	 556	 44	 392	 absent	 properTrial	 right	 1	 12.615
linesB	 5	 49	 1	 501	 -11	 382	 right	 properTrial	 right	 1	 1.177
linesB	 5	 50	 1	 526	 -14	 394	 absent	 properTrial	 left	 1	 16.359
linesB	 5	 51	 1	 442	 -70	 332	 absent	 properTrial	 right	 1	 13.571
linesB	 5	 52	 1	 542	 30	 383	 right	 properTrial	 right	 1	 1.235
linesB	 5	 53	 1	 532	 20	 394	 absent	 properTrial	 right	 1	 10.950
linesB	 5	 54	 1	 514	 2	 351	 left	 properTrial	 right	 0	 8.994
linesB	 5	 55	 1	 538	 -26	 390	 absent	 properTrial	 left	 1	 14.571
linesB	 5	 56	 1	 522	 10	 389	 absent	 properTrial	 right	 1	 10.859
linesB	 5	 57	 1	 523	 11	 403	 left	 properTrial	 right	 0	 11.936
linesB	 5	 58	 1	 522	 10	 399	 right	 properTrial	 right	 1	 1.582
linesB	 5	 59	 1	 520	 8	 399	 left	 properTrial	 right	 0	 15.919
linesB	 5	 60	 1	 520	 8	 413	 left	 properTrial	 right	 0	 20.852
linesB	 5	 61	 1	 525	 -13	 404	 absent	 properTrial	 left	 1	 31.588
linesB	 5	 62	 1	 523	 11	 396	 right	 properTrial	 right	 1	 1.347
linesB	 5	 63	 1	 518	 -6	 404	 right	 properTrial	 left	 0	 21.998
linesB	 5	 64	 1	 546	 -34	 412	 absent	 properTrial	 left	 1	 22.280
linesB	 5	 65	 1	 542	 -30	 409	 absent	 properTrial	 left	 1	 10.143
linesB	 5	 66	 1	 534	 -22	 370	 left	 properTrial	 left	 1	 0.999
linesB	 5	 67	 1	 534	 22	 390	 absent	 properTrial	 right	 1	 7.049
linesB	 5	 68	 1	 503	 -9	 373	 left	 properTrial	 right	 0	 10.468
linesB	 5	 69	 1	 531	 19	 402	 absent	 properTrial	 right	 1	 15.421
linesB	 5	 70	 1	 539	 -27	 395	 right	 properTrial	 left	 0	 15.429
linesB	 5	 71	 1	 549	 37	 403	 left	 properTrial	 right	 1	 12.486
linesB	 5	 72	 1	 532	 -20	 394	 absent	 properTrial	 left	 1	 18.227
linesB	 5	 73	 1	 535	 23	 382	 right	 properTrial	 right	 1	 1.591
linesB	 5	 74	 1	 539	 -27	 377	 right	 properTrial	 left	 0	 10.963
linesB	 5	 75	 1	 539	 27	 406	 absent	 properTrial	 right	 1	 11.817
linesB	 5	 76	 1	 540	 28	 399	 right	 properTrial	 right	 1	 1.032
linesB	 5	 77	 1	 539	 27	 397	 absent	 properTrial	 right	 1	 20.576
linesB	 5	 78	 1	 535	 23	 395	 left	 properTrial	 right	 1	 10.928
linesB	 5	 79	 1	 533	 21	 411	 absent	 properTrial	 right	 1	 11.098
linesB	 5	 80	 1	 525	 13	 408	 absent	 properTrial	 right	 1	 8.932
linesB	 5	 81	 1	 559	 -47	 406	 absent	 properTrial	 left	 1	 11.879
linesB	 5	 82	 1	 545	 -33	 395	 absent	 properTrial	 left	 1	 7.477
linesB	 5	 83	 1	 534	 22	 395	 right	 properTrial	 right	 1	 0.849
linesB	 5	 84	 1	 532	 -20	 401	 left	 properTrial	 left	 1	 1.092
linesB	 5	 85	 1	 529	 -17	 402	 absent	 properTrial	 left	 1	 9.194
linesB	 5	 86	 1	 404	 -108	 313	 right	 properTrial	 right	 1	 1.091
linesB	 5	 87	 1	 531	 -19	 397	 absent	 properTrial	 left	 1	 5.556
linesB	 5	 88	 1	 495	 -17	 328	 left	 properTrial	 right	 0	 7.932
linesB	 5	 89	 1	 535	 -23	 412	 left	 properTrial	 left	 1	 0.939
linesB	 5	 90	 1	 524	 -12	 388	 left	 properTrial	 left	 1	 0.915
linesB	 5	 91	 1	 527	 -15	 400	 absent	 properTrial	 left	 1	 9.419
linesB	 5	 92	 1	 537	 -25	 387	 left	 properTrial	 left	 1	 0.759
linesB	 5	 93	 1	 528	 -16	 403	 absent	 properTrial	 left	 1	 7.655
linesB	 5	 94	 1	 538	 26	 386	 left	 properTrial	 right	 0	 5.846
linesB	 5	 95	 1	 534	 -22	 402	 right	 properTrial	 left	 1	 1.731
linesB	 5	 96	 1	 534	 22	 387	 absent	 properTrial	 right	 1	 11.991
linesB	 5	 97	 1	 505	 7	 406	 absent	 properTrial	 left	 1	 10.286
linesB	 5	 98	 1	 535	 23	 394	 absent	 properTrial	 right	 1	 7.122
linesB	 5	 99	 1	 535	 23	 404	 absent	 properTrial	 right	 1	 9.016
linesB	 5	 100	 1	 532	 20	 403	 left	 properTrial	 right	 1	 5.178
linesB	 5	 101	 1	 542	 30	 394	 absent	 properTrial	 right	 1	 5.457
linesB	 5	 102	 1	 487	 25	 334	 right	 properTrial	 left	 0	 9.338
linesB	 5	 103	 1	 551	 -39	 407	 absent	 properTrial	 left	 1	 10.277
linesB	 5	 104	 1	 544	 32	 398	 left	 properTrial	 right	 0	 6.967
linesB	 5	 105	 1	 552	 40	 413	 right	 properTrial	 right	 1	 0.776
linesB	 5	 106	 1	 550	 -38	 403	 absent	 properTrial	 left	 1	 16.187
linesB	 5	 107	 1	 555	 -43	 380	 left	 properTrial	 left	 1	 0.930
linesB	 5	 108	 1	 538	 -26	 398	 right	 properTrial	 left	 0	 6.220
linesB	 5	 109	 1	 537	 25	 411	 absent	 properTrial	 right	 1	 10.881
linesB	 5	 110	 1	 532	 20	 400	 absent	 properTrial	 right	 1	 12.885
linesB	 5	 111	 1	 517	 5	 394	 right	 properTrial	 right	 1	 0.810
linesB	 5	 112	 1	 539	 -27	 407	 absent	 properTrial	 left	 1	 6.057
linesB	 11	 17	 1	 540	 -28	 345	 left	 properTrial	 left	 1	 1.425
linesB	 11	 18	 1	 543	 -31	 338	 right	 properTrial	 left	 0	 8.481
linesB	 11	 19	 1	 518	 6	 271	 right	 properTrial	 right	 1	 1.144
linesB	 11	 20	 1	 521	 9	 342	 left	 properTrial	 right	 1	 5.818
linesB	 11	 21	 1	 535	 -23	 352	 left	 properTrial	 left	 1	 1.012
linesB	 11	 22	 1	 526	 14	 327	 absent	 properTrial	 right	 1	 20.416
linesB	 11	 23	 1	 537	 25	 352	 absent	 properTrial	 right	 1	 10.902
linesB	 11	 24	 1	 530	 18	 355	 right	 properTrial	 right	 1	 1.622
linesB	 11	 25	 1	 536	 -24	 365	 right	 properTrial	 left	 1	 2.960
linesB	 11	 26	 1	 544	 -32	 359	 absent	 properTrial	 left	 1	 16.600
linesB	 11	 27	 1	 536	 -24	 363	 absent	 properTrial	 left	 1	 20.680
linesB	 11	 28	 1	 523	 -11	 355	 absent	 properTrial	 left	 1	 13.433
linesB	 11	 29	 1	 528	 -16	 357	 absent	 properTrial	 left	 1	 7.569
linesB	 11	 30	 1	 525	 13	 336	 absent	 properTrial	 right	 1	 12.920
linesB	 11	 31	 1	 525	 13	 357	 right	 properTrial	 right	 1	 1.245
linesB	 11	 32	 1	 532	 -20	 336	 absent	 properTrial	 left	 1	 11.656
linesB	 11	 33	 1	 522	 10	 343	 left	 properTrial	 right	 0	 8.487
linesB	 11	 34	 1	 514	 2	 359	 right	 properTrial	 right	 1	 1.217
linesB	 11	 35	 1	 531	 -19	 359	 absent	 properTrial	 left	 1	 15.735
linesB	 11	 36	 1	 516	 -4	 343	 absent	 properTrial	 left	 1	 16.419
linesB	 11	 37	 1	 517	 -5	 334	 absent	 properTrial	 left	 1	 18.483
linesB	 11	 38	 1	 524	 12	 343	 absent	 properTrial	 right	 1	 17.130
linesB	 11	 39	 1	 518	 6	 349	 left	 properTrial	 right	 1	 13.041
linesB	 11	 40	 1	 522	 10	 349	 left	 properTrial	 right	 0	 22.802
linesB	 11	 41	 1	 518	 -6	 364	 absent	 properTrial	 left	 1	 16.245
linesB	 11	 42	 1	 499	 13	 372	 absent	 properTrial	 left	 1	 17.064
linesB	 11	 43	 1	 502	 -10	 378	 absent	 properTrial	 right	 1	 17.475
linesB	 11	 44	 1	 491	 -21	 376	 absent	 properTrial	 right	 1	 15.304
linesB	 11	 45	 1	 463	 49	 356	 left	 properTrial	 left	 1	 3.897
linesB	 11	 46	 1	 476	 -36	 361	 right	 properTrial	 right	 1	 1.020
linesB	 11	 47	 1	 504	 8	 377	 right	 properTrial	 left	 1	 4.231
linesB	 11	 48	 1	 505	 -7	 369	 absent	 properTrial	 right	 1	 13.613
linesB	 11	 49	 1	 496	 -16	 378	 right	 properTrial	 right	 1	 0.759
linesB	 11	 50	 1	 495	 17	 351	 absent	 properTrial	 left	 1	 23.275
linesB	 11	 51	 1	 490	 -22	 377	 absent	 properTrial	 right	 1	 11.376
linesB	 11	 52	 1	 489	 -23	 369	 right	 properTrial	 right	 1	 0.782
linesB	 11	 53	 1	 504	 -8	 352	 absent	 properTrial	 right	 1	 7.525
linesB	 11	 54	 1	 509	 -3	 382	 left	 properTrial	 right	 0	 7.281
linesB	 11	 55	 1	 491	 21	 381	 absent	 properTrial	 left	 1	 20.238
linesB	 11	 56	 1	 482	 -30	 375	 absent	 properTrial	 right	 1	 21.101
linesB	 11	 57	 1	 495	 -17	 375	 left	 properTrial	 right	 0	 22.619
linesB	 11	 58	 1	 507	 -5	 385	 right	 properTrial	 right	 1	 1.185
linesB	 11	 59	 1	 505	 -7	 387	 left	 properTrial	 right	 0	 37.996
linesB	 11	 60	 1	 502	 -10	 381	 left	 properTrial	 right	 1	 3.221
linesB	 11	 61	 1	 506	 6	 391	 absent	 properTrial	 left	 1	 46.953
linesB	 11	 62	 1	 508	 -4	 374	 right	 properTrial	 right	 1	 1.031
linesB	 11	 63	 1	 501	 11	 370	 right	 properTrial	 left	 1	 22.725
linesB	 11	 64	 1	 501	 11	 378	 absent	 properTrial	 left	 1	 39.210
linesB	 11	 65	 1	 507	 5	 378	 absent	 properTrial	 left	 1	 17.343
linesB	 11	 66	 1	 509	 3	 309	 left	 properTrial	 left	 1	 0.794
linesB	 11	 67	 1	 487	 -25	 372	 absent	 properTrial	 right	 1	 33.158
linesB	 11	 68	 1	 496	 -16	 366	 left	 properTrial	 right	 1	 4.118
linesB	 11	 69	 1	 491	 -21	 358	 absent	 properTrial	 right	 1	 15.912
linesB	 11	 70	 1	 485	 27	 378	 right	 properTrial	 left	 1	 3.384
linesB	 11	 71	 1	 474	 -38	 339	 left	 properTrial	 right	 1	 5.901
linesB	 11	 72	 1	 483	 29	 336	 absent	 properTrial	 left	 1	 24.868
linesB	 11	 73	 1	 479	 -33	 367	 right	 properTrial	 right	 1	 0.863
linesB	 11	 74	 1	 475	 37	 346	 right	 properTrial	 left	 1	 3.921
linesB	 11	 75	 1	 558	 46	 216	 absent	 properTrial	 right	 1	 25.761
linesB	 11	 76	 1	 484	 -28	 355	 right	 properTrial	 right	 1	 0.666
linesB	 11	 77	 1	 484	 -28	 335	 absent	 properTrial	 right	 1	 41.172
linesB	 11	 78	 1	 485	 -27	 351	 left	 properTrial	 right	 0	 24.401
linesB	 11	 79	 1	 465	 -47	 365	 absent	 properTrial	 right	 1	 47.585
linesB	 11	 80	 1	 475	 -37	 376	 absent	 properTrial	 right	 1	 37.958
linesB	 11	 81	 1	 488	 24	 344	 absent	 properTrial	 left	 1	 42.271
linesB	 11	 82	 1	 480	 32	 338	 absent	 properTrial	 left	 1	 35.483
linesB	 11	 83	 1	 502	 -10	 273	 right	 properTrial	 right	 1	 1.079
linesB	 11	 84	 1	 487	 25	 365	 left	 properTrial	 left	 1	 0.780
linesB	 11	 85	 1	 491	 21	 347	 absent	 properTrial	 left	 1	 28.283
linesB	 11	 86	 1	 483	 -29	 343	 right	 properTrial	 right	 1	 0.760
linesB	 11	 87	 1	 482	 30	 368	 absent	 properTrial	 left	 1	 24.830
linesB	 11	 88	 1	 493	 -19	 384	 left	 properTrial	 right	 1	 3.555
linesB	 11	 89	 1	 510	 2	 374	 left	 properTrial	 left	 1	 1.105
linesB	 11	 90	 1	 502	 10	 373	 left	 properTrial	 left	 1	 0.678
linesB	 11	 91	 1	 518	 -6	 373	 absent	 properTrial	 left	 1	 30.419
linesB	 11	 92	 1	 509	 3	 376	 left	 properTrial	 left	 1	 0.755
linesB	 11	 93	 1	 0	 0	 0	 absent	 properTrial	 left	 1	 37.404
linesB	 11	 94	 1	 507	 -5	 384	 left	 properTrial	 right	 0	 29.813
linesB	 11	 95	 1	 496	 16	 377	 right	 properTrial	 left	 0	 43.231
linesB	 11	 96	 1	 496	 -16	 389	 absent	 properTrial	 right	 1	 51.010
linesB	 11	 97	 1	 507	 5	 379	 absent	 properTrial	 left	 1	 56.816
linesB	 11	 98	 1	 504	 -8	 382	 absent	 properTrial	 right	 1	 49.172
linesB	 11	 99	 1	 505	 -7	 383	 absent	 properTrial	 right	 1	 43.493
linesB	 11	 100	 1	 515	 3	 383	 left	 properTrial	 right	 0	 46.260
linesB	 11	 101	 1	 496	 -16	 387	 absent	 properTrial	 right	 1	 35.126
linesB	 11	 102	 1	 503	 9	 394	 right	 properTrial	 left	 0	 58.095
linesB	 11	 103	 1	 511	 1	 382	 absent	 properTrial	 left	 1	 57.259
linesB	 11	 104	 1	 501	 -11	 361	 left	 properTrial	 right	 1	 29.636
linesB	 11	 105	 1	 501	 -11	 373	 right	 properTrial	 right	 1	 1.113
linesB	 11	 106	 1	 498	 14	 369	 absent	 properTrial	 left	 1	 60.971
linesB	 11	 107	 1	 503	 9	 361	 left	 properTrial	 left	 1	 0.842
linesB	 11	 108	 1	 495	 17	 343	 right	 properTrial	 left	 1	 9.340
linesB	 11	 109	 1	 616	 104	 303	 absent	 properTrial	 right	 1	 76.912
linesB	 11	 110	 1	 516	 4	 365	 absent	 properTrial	 right	 1	 33.602
linesB	 11	 111	 1	 470	 -42	 326	 right	 properTrial	 right	 1	 1.162
linesB	 11	 112	 1	 514	 -2	 378	 absent	 properTrial	 left	 1	 80.007
linesB	 12	 17	 1	 514	 -2	 404	 left	 properTrial	 left	 1	 27.538
linesB	 12	 18	 1	 516	 -4	 394	 right	 properTrial	 left	 0	 10.260
linesB	 12	 19	 1	 510	 -2	 395	 right	 properTrial	 right	 1	 1.095
linesB	 12	 20	 1	 511	 -1	 386	 left	 properTrial	 right	 0	 14.109
linesB	 12	 21	 1	 511	 1	 401	 left	 properTrial	 left	 1	 1.080
linesB	 12	 22	 1	 507	 -5	 392	 absent	 properTrial	 right	 1	 31.450
linesB	 12	 23	 1	 0	 0	 0	 absent	 properTrial	 right	 1	 24.213
linesB	 12	 24	 1	 525	 13	 410	 right	 properTrial	 right	 1	 1.964
linesB	 12	 25	 1	 511	 1	 397	 right	 properTrial	 left	 0	 28.795
linesB	 12	 26	 1	 504	 8	 401	 absent	 properTrial	 left	 1	 32.483
linesB	 12	 27	 1	 512	 0	 400	 absent	 properTrial	 left	 1	 36.042
linesB	 12	 28	 1	 517	 -5	 392	 absent	 properTrial	 left	 1	 57.215
linesB	 12	 29	 1	 513	 -1	 407	 absent	 properTrial	 left	 1	 35.378
linesB	 12	 30	 1	 512	 0	 407	 absent	 properTrial	 right	 1	 40.371
linesB	 12	 31	 1	 516	 4	 427	 right	 properTrial	 right	 1	 4.080
linesB	 12	 32	 1	 503	 9	 414	 absent	 properTrial	 left	 1	 24.016
linesB	 12	 33	 1	 513	 1	 411	 left	 properTrial	 right	 1	 17.926
linesB	 12	 34	 1	 505	 -7	 403	 right	 properTrial	 right	 1	 1.052
linesB	 12	 35	 1	 497	 15	 393	 absent	 properTrial	 left	 1	 25.739
linesB	 12	 36	 1	 510	 2	 388	 absent	 properTrial	 left	 1	 31.412
linesB	 12	 37	 1	 517	 -5	 396	 absent	 properTrial	 left	 1	 25.846
linesB	 12	 38	 1	 511	 -1	 396	 absent	 properTrial	 right	 1	 31.890
linesB	 12	 39	 1	 516	 4	 419	 left	 properTrial	 right	 1	 6.529
linesB	 12	 40	 1	 505	 -7	 406	 left	 properTrial	 right	 0	 12.690
linesB	 12	 41	 1	 507	 5	 384	 absent	 properTrial	 left	 1	 28.043
linesB	 12	 42	 1	 507	 5	 398	 absent	 properTrial	 left	 1	 26.082
linesB	 12	 43	 1	 511	 -1	 391	 absent	 properTrial	 right	 1	 30.420
linesB	 12	 44	 1	 509	 -3	 389	 absent	 properTrial	 right	 1	 27.695
linesB	 12	 45	 1	 509	 3	 395	 left	 properTrial	 left	 1	 1.672
linesB	 12	 46	 1	 505	 -7	 388	 right	 properTrial	 right	 1	 1.043
linesB	 12	 47	 1	 499	 13	 384	 right	 properTrial	 left	 1	 28.579
linesB	 12	 48	 1	 503	 -9	 365	 absent	 properTrial	 right	 1	 25.369
linesB	 12	 49	 1	 506	 -6	 388	 right	 properTrial	 right	 1	 0.812
linesB	 12	 50	 1	 515	 -3	 362	 absent	 properTrial	 left	 1	 24.463
linesB	 12	 51	 1	 507	 -5	 371	 absent	 properTrial	 right	 1	 34.658
linesB	 12	 52	 1	 507	 -5	 382	 right	 properTrial	 right	 1	 0.840
linesB	 12	 53	 1	 502	 -10	 381	 absent	 properTrial	 right	 1	 33.727
linesB	 12	 54	 1	 510	 -2	 384	 left	 properTrial	 right	 1	 16.314
linesB	 12	 55	 1	 513	 -1	 375	 absent	 properTrial	 left	 1	 27.085
linesB	 12	 56	 1	 511	 -1	 373	 absent	 properTrial	 right	 1	 27.848
linesB	 12	 57	 1	 500	 -12	 379	 left	 properTrial	 right	 1	 22.648
linesB	 12	 58	 1	 503	 -9	 384	 right	 properTrial	 right	 1	 1.379
linesB	 12	 59	 1	 503	 -9	 377	 left	 properTrial	 right	 1	 37.371
linesB	 12	 60	 1	 502	 -10	 388	 left	 properTrial	 right	 1	 26.573
linesB	 12	 61	 1	 509	 3	 387	 absent	 properTrial	 left	 1	 28.802
linesB	 12	 62	 1	 496	 -16	 390	 right	 properTrial	 right	 1	 0.901
linesB	 12	 63	 1	 505	 7	 367	 right	 properTrial	 left	 0	 50.653
linesB	 12	 64	 1	 0	 0	 0	 absent	 properTrial	 left	 1	 44.800
linesB	 12	 65	 1	 510	 2	 391	 absent	 properTrial	 left	 1	 38.567
linesB	 12	 66	 1	 498	 14	 395	 left	 properTrial	 left	 1	 0.778
linesB	 12	 67	 1	 497	 -15	 385	 absent	 properTrial	 right	 1	 28.299
linesB	 12	 68	 1	 503	 -9	 394	 left	 properTrial	 right	 1	 35.228
linesB	 12	 69	 1	 494	 -18	 386	 absent	 properTrial	 right	 1	 36.884
linesB	 12	 70	 1	 494	 18	 393	 right	 properTrial	 left	 1	 5.740
linesB	 12	 71	 1	 499	 -13	 390	 left	 properTrial	 right	 1	 14.986
linesB	 12	 72	 1	 495	 17	 400	 absent	 properTrial	 left	 1	 22.835
linesB	 12	 73	 1	 505	 -7	 398	 right	 properTrial	 right	 1	 0.955
linesB	 12	 74	 1	 505	 7	 392	 right	 properTrial	 left	 1	 16.519
linesB	 12	 75	 1	 498	 -14	 398	 absent	 properTrial	 right	 1	 43.722
linesB	 12	 76	 1	 488	 -24	 383	 right	 properTrial	 right	 1	 0.855
linesB	 12	 77	 1	 491	 -21	 386	 absent	 properTrial	 right	 1	 29.629
linesB	 12	 78	 1	 496	 -16	 396	 left	 properTrial	 right	 1	 14.943
linesB	 12	 79	 1	 504	 -8	 401	 absent	 properTrial	 right	 1	 29.560
linesB	 12	 80	 1	 503	 -9	 397	 absent	 properTrial	 right	 1	 35.158
linesB	 12	 81	 1	 501	 11	 393	 absent	 properTrial	 left	 1	 32.020
linesB	 12	 82	 1	 501	 11	 407	 absent	 properTrial	 left	 1	 31.377
linesB	 12	 83	 1	 504	 -8	 399	 right	 properTrial	 right	 1	 0.818
linesB	 12	 84	 1	 501	 11	 398	 left	 properTrial	 left	 1	 0.961
linesB	 12	 85	 1	 494	 18	 400	 absent	 properTrial	 left	 1	 18.967
linesB	 12	 86	 1	 495	 -17	 386	 right	 properTrial	 right	 1	 1.316
linesB	 12	 87	 1	 493	 19	 381	 absent	 properTrial	 left	 1	 21.041
linesB	 12	 88	 1	 492	 -20	 398	 left	 properTrial	 right	 1	 18.633
linesB	 12	 89	 1	 517	 -5	 404	 left	 properTrial	 left	 1	 0.659
linesB	 12	 90	 1	 512	 0	 400	 left	 properTrial	 left	 1	 0.776
linesB	 12	 91	 1	 523	 -11	 390	 absent	 properTrial	 left	 1	 20.194
linesB	 12	 92	 1	 509	 3	 388	 left	 properTrial	 left	 1	 0.983
linesB	 12	 93	 1	 515	 -3	 378	 absent	 properTrial	 left	 1	 26.240
linesB	 12	 94	 1	 523	 11	 392	 left	 properTrial	 right	 1	 28.890
linesB	 12	 95	 1	 514	 -2	 390	 right	 properTrial	 left	 1	 6.242
linesB	 12	 96	 1	 514	 2	 385	 absent	 properTrial	 right	 1	 23.520
linesB	 12	 97	 1	 511	 1	 383	 absent	 properTrial	 left	 1	 18.531
linesB	 12	 98	 1	 508	 -4	 383	 absent	 properTrial	 right	 1	 22.667
linesB	 12	 99	 1	 506	 -6	 389	 absent	 properTrial	 right	 1	 23.370
linesB	 12	 100	 1	 513	 1	 385	 left	 properTrial	 right	 1	 27.410
linesB	 12	 101	 1	 512	 0	 388	 absent	 properTrial	 right	 1	 23.013
linesB	 12	 102	 1	 522	 -10	 387	 right	 properTrial	 left	 1	 19.602
linesB	 12	 103	 1	 505	 7	 384	 absent	 properTrial	 left	 1	 20.973
linesB	 12	 104	 1	 516	 4	 387	 left	 properTrial	 right	 1	 18.567
linesB	 12	 105	 1	 512	 0	 389	 right	 properTrial	 right	 1	 0.989
linesB	 12	 106	 1	 508	 4	 374	 absent	 properTrial	 left	 1	 19.032
linesB	 12	 107	 1	 505	 7	 390	 left	 properTrial	 left	 1	 0.781
linesB	 12	 108	 1	 508	 4	 377	 right	 properTrial	 left	 1	 19.331
linesB	 12	 109	 1	 511	 -1	 382	 absent	 properTrial	 right	 1	 28.839
linesB	 12	 110	 1	 520	 8	 391	 absent	 properTrial	 right	 1	 30.013
linesB	 12	 111	 1	 520	 8	 384	 right	 properTrial	 right	 1	 0.852
linesB	 12	 112	 1	 521	 -9	 381	 absent	 properTrial	 left	 1	 25.551
linesB	 13	 17	 1	 0	 0	 0	 left	 properTrial	 left	 1	 0.692
linesB	 13	 18	 1	 487	 25	 397	 right	 properTrial	 left	 0	 4.238
linesB	 13	 19	 1	 482	 -30	 407	 right	 properTrial	 right	 1	 0.833
linesB	 13	 20	 1	 495	 -17	 386	 left	 properTrial	 right	 1	 4.892
linesB	 13	 21	 1	 490	 22	 406	 left	 properTrial	 left	 1	 0.860
linesB	 13	 22	 1	 487	 -25	 402	 absent	 properTrial	 right	 1	 4.981
linesB	 13	 23	 1	 483	 -29	 417	 absent	 properTrial	 right	 1	 3.746
linesB	 13	 24	 1	 480	 -32	 421	 right	 properTrial	 right	 0	 3.544
linesB	 13	 25	 1	 472	 40	 417	 right	 properTrial	 left	 0	 5.105
linesB	 13	 26	 1	 0	 0	 0	 absent	 properTrial	 left	 1	 5.981
linesB	 13	 27	 1	 482	 30	 404	 absent	 properTrial	 left	 0	 4.622
linesB	 13	 28	 1	 488	 24	 432	 absent	 properTrial	 left	 1	 5.165
linesB	 13	 29	 1	 487	 25	 435	 absent	 properTrial	 left	 0	 6.407
linesB	 13	 30	 1	 478	 -34	 422	 absent	 properTrial	 right	 1	 7.120
linesB	 13	 31	 1	 477	 -35	 401	 right	 properTrial	 right	 0	 7.292
linesB	 13	 32	 1	 475	 37	 417	 absent	 properTrial	 left	 1	 8.064
linesB	 13	 33	 1	 475	 -37	 424	 left	 properTrial	 right	 0	 7.527
linesB	 13	 34	 1	 482	 -30	 412	 right	 properTrial	 right	 1	 2.205
linesB	 13	 35	 1	 477	 35	 396	 absent	 properTrial	 left	 1	 9.960
linesB	 13	 36	 1	 482	 30	 397	 absent	 properTrial	 left	 1	 7.884
linesB	 13	 37	 1	 486	 26	 395	 absent	 properTrial	 left	 1	 9.152
linesB	 13	 38	 1	 476	 -36	 414	 absent	 properTrial	 right	 1	 9.844
linesB	 13	 39	 1	 483	 -29	 401	 left	 properTrial	 right	 1	 3.024
linesB	 13	 40	 1	 483	 -29	 400	 left	 properTrial	 right	 0	 11.306
linesB	 13	 41	 1	 516	 -4	 407	 absent	 properTrial	 left	 1	 5.682
linesB	 13	 42	 1	 499	 13	 408	 absent	 properTrial	 left	 0	 4.414
linesB	 13	 43	 1	 496	 -16	 411	 absent	 properTrial	 right	 1	 8.169
linesB	 13	 44	 1	 502	 -10	 421	 absent	 properTrial	 right	 1	 8.073
linesB	 13	 45	 1	 496	 16	 415	 left	 properTrial	 left	 1	 3.162
linesB	 13	 46	 1	 499	 -13	 411	 right	 properTrial	 right	 1	 1.174
linesB	 13	 47	 1	 501	 11	 401	 right	 properTrial	 left	 0	 8.384
linesB	 13	 48	 1	 494	 -18	 426	 absent	 properTrial	 right	 1	 6.910
linesB	 13	 49	 1	 497	 -15	 414	 right	 properTrial	 right	 1	 0.827
linesB	 13	 50	 1	 520	 -8	 401	 absent	 properTrial	 left	 1	 7.482
linesB	 13	 51	 1	 498	 -14	 419	 absent	 properTrial	 right	 0	 1.504
linesB	 13	 52	 1	 490	 -22	 418	 right	 properTrial	 right	 1	 1.167
linesB	 13	 53	 1	 507	 -5	 402	 absent	 properTrial	 right	 1	 8.309
linesB	 13	 54	 1	 491	 -21	 414	 left	 properTrial	 right	 0	 6.221
linesB	 13	 55	 1	 496	 16	 425	 absent	 properTrial	 left	 1	 8.927
linesB	 13	 56	 1	 492	 -20	 415	 absent	 properTrial	 right	 1	 6.512
linesB	 13	 57	 1	 502	 -10	 398	 left	 properTrial	 right	 0	 6.455
linesB	 13	 58	 1	 489	 -23	 432	 right	 properTrial	 right	 1	 0.683
linesB	 13	 59	 1	 497	 -15	 399	 left	 properTrial	 right	 0	 7.378
linesB	 13	 60	 1	 496	 -16	 436	 left	 properTrial	 right	 0	 10.122
linesB	 13	 61	 1	 492	 20	 414	 absent	 properTrial	 left	 1	 10.085
linesB	 13	 62	 1	 494	 -18	 421	 right	 properTrial	 right	 1	 0.649
linesB	 13	 63	 1	 498	 14	 403	 right	 properTrial	 left	 0	 9.437
linesB	 13	 64	 1	 483	 29	 421	 absent	 properTrial	 left	 1	 7.309
linesB	 13	 65	 1	 510	 2	 378	 absent	 properTrial	 left	 1	 5.262
linesB	 13	 66	 1	 513	 -1	 363	 left	 properTrial	 left	 1	 0.710
linesB	 13	 67	 1	 517	 5	 359	 absent	 properTrial	 right	 1	 8.303
linesB	 13	 68	 1	 518	 6	 384	 left	 properTrial	 right	 0	 7.362
linesB	 13	 69	 1	 503	 -9	 389	 absent	 properTrial	 right	 1	 9.823
linesB	 13	 70	 1	 514	 -2	 376	 right	 properTrial	 left	 0	 6.140
linesB	 13	 71	 1	 510	 -2	 389	 left	 properTrial	 right	 1	 2.862
linesB	 13	 72	 1	 520	 -8	 375	 absent	 properTrial	 left	 0	 2.737
linesB	 13	 73	 1	 505	 -7	 391	 right	 properTrial	 right	 1	 1.531
linesB	 13	 74	 1	 523	 -11	 358	 right	 properTrial	 left	 0	 8.183
linesB	 13	 75	 1	 500	 -12	 390	 absent	 properTrial	 right	 1	 10.356
linesB	 13	 76	 1	 513	 1	 379	 right	 properTrial	 right	 1	 0.690
linesB	 13	 77	 1	 512	 0	 392	 absent	 properTrial	 right	 1	 4.355
linesB	 13	 78	 1	 514	 2	 376	 left	 properTrial	 right	 1	 4.169
linesB	 13	 79	 1	 508	 -4	 382	 absent	 properTrial	 right	 0	 4.134
linesB	 13	 80	 1	 509	 -3	 385	 absent	 properTrial	 right	 1	 8.365
linesB	 13	 81	 1	 510	 2	 393	 absent	 properTrial	 left	 0	 5.638
linesB	 13	 82	 1	 500	 12	 397	 absent	 properTrial	 left	 0	 7.264
linesB	 13	 83	 1	 502	 -10	 390	 right	 properTrial	 right	 1	 0.821
linesB	 13	 84	 1	 523	 -11	 309	 left	 properTrial	 left	 1	 0.855
linesB	 13	 85	 1	 504	 8	 374	 absent	 properTrial	 left	 1	 12.844
linesB	 13	 86	 1	 513	 1	 387	 right	 properTrial	 right	 1	 0.608
linesB	 13	 87	 1	 508	 4	 355	 absent	 properTrial	 left	 0	 1.258
linesB	 13	 88	 1	 499	 -13	 382	 left	 properTrial	 right	 0	 10.725
linesB	 13	 89	 1	 501	 11	 388	 left	 properTrial	 left	 1	 0.766
linesB	 13	 90	 1	 502	 10	 374	 left	 properTrial	 left	 1	 0.648
linesB	 13	 91	 1	 496	 16	 386	 absent	 properTrial	 left	 1	 6.250
linesB	 13	 92	 1	 505	 7	 381	 left	 properTrial	 left	 1	 0.556
linesB	 13	 93	 1	 498	 14	 412	 absent	 properTrial	 left	 0	 5.349
linesB	 13	 94	 1	 483	 -29	 399	 left	 properTrial	 right	 0	 6.504
linesB	 13	 95	 1	 483	 29	 416	 right	 properTrial	 left	 0	 8.292
linesB	 13	 96	 1	 484	 -28	 406	 absent	 properTrial	 right	 0	 5.261
linesB	 13	 97	 1	 333	 179	 401	 absent	 properTrial	 left	 1	 11.859
linesB	 13	 98	 1	 494	 -18	 366	 absent	 properTrial	 right	 1	 10.353
linesB	 13	 99	 1	 503	 -9	 399	 absent	 properTrial	 right	 1	 8.626
linesB	 13	 100	 1	 502	 -10	 380	 left	 properTrial	 right	 0	 7.799
linesB	 13	 101	 1	 495	 -17	 404	 absent	 properTrial	 right	 0	 6.205
linesB	 13	 102	 1	 483	 29	 420	 right	 properTrial	 left	 0	 9.055
linesB	 13	 103	 1	 482	 30	 400	 absent	 properTrial	 left	 1	 8.883
linesB	 13	 104	 1	 485	 -27	 394	 left	 properTrial	 right	 1	 4.884
linesB	 13	 105	 1	 495	 -17	 390	 right	 properTrial	 right	 1	 0.598
linesB	 13	 106	 1	 494	 18	 378	 absent	 properTrial	 left	 1	 7.317
linesB	 13	 107	 1	 493	 19	 393	 left	 properTrial	 left	 1	 0.681
linesB	 13	 108	 1	 495	 17	 393	 right	 properTrial	 left	 0	 9.230
linesB	 13	 109	 1	 483	 -29	 413	 absent	 properTrial	 right	 1	 10.097
linesB	 13	 110	 1	 493	 -19	 386	 absent	 properTrial	 right	 1	 9.257
linesB	 13	 111	 1	 494	 -18	 394	 right	 properTrial	 right	 1	 0.635
linesB	 13	 112	 1	 496	 16	 402	 absent	 properTrial	 left	 1	 5.284
linesB	 14	 17	 1	 513	 -1	 375	 left	 properTrial	 left	 1	 2.240
linesB	 14	 18	 1	 484	 28	 396	 right	 properTrial	 left	 1	 8.852
linesB	 14	 19	 1	 494	 -18	 391	 right	 properTrial	 right	 1	 2.193
linesB	 14	 20	 1	 507	 -5	 365	 left	 properTrial	 right	 1	 2.992
linesB	 14	 21	 1	 490	 22	 398	 left	 properTrial	 left	 1	 3.587
linesB	 14	 22	 1	 489	 -23	 392	 absent	 properTrial	 right	 0	 4.223
linesB	 14	 23	 1	 499	 -13	 396	 absent	 properTrial	 right	 0	 7.173
linesB	 14	 24	 1	 494	 -18	 402	 right	 properTrial	 right	 1	 4.995
linesB	 14	 25	 1	 497	 15	 394	 right	 properTrial	 left	 1	 21.774
linesB	 14	 26	 1	 488	 24	 393	 absent	 properTrial	 left	 0	 9.315
linesB	 14	 27	 1	 471	 41	 401	 absent	 properTrial	 left	 0	 17.096
linesB	 14	 28	 1	 499	 13	 368	 absent	 properTrial	 left	 1	 21.702
linesB	 14	 29	 1	 497	 15	 288	 absent	 properTrial	 left	 0	 7.720
linesB	 14	 30	 1	 502	 -10	 391	 absent	 properTrial	 right	 0	 15.558
linesB	 14	 31	 1	 483	 -29	 403	 right	 properTrial	 right	 1	 10.529
linesB	 14	 32	 1	 495	 17	 403	 absent	 properTrial	 left	 1	 59.503
linesB	 14	 33	 1	 491	 -21	 381	 left	 properTrial	 right	 1	 60.019
linesB	 14	 34	 1	 492	 -20	 366	 right	 properTrial	 right	 1	 2.652
linesB	 14	 35	 1	 497	 15	 379	 absent	 properTrial	 left	 0	 29.161
linesB	 14	 36	 1	 455	 57	 388	 absent	 properTrial	 left	 0	 64.870
linesB	 14	 37	 1	 492	 20	 387	 absent	 properTrial	 left	 0	 42.102
linesB	 14	 38	 1	 478	 -34	 426	 absent	 properTrial	 right	 0	 47.741
linesB	 14	 39	 1	 459	 -53	 367	 left	 properTrial	 right	 1	 23.687
linesB	 14	 40	 1	 454	 -58	 397	 left	 properTrial	 right	 1	 32.916
linesB	 14	 41	 1	 497	 15	 376	 absent	 properTrial	 left	 0	 40.640
linesB	 14	 42	 1	 496	 16	 385	 absent	 properTrial	 left	 0	 83.491
linesB	 14	 43	 1	 491	 -21	 383	 absent	 properTrial	 right	 0	 84.934
linesB	 14	 44	 1	 478	 -34	 364	 absent	 properTrial	 right	 1	 130.329
linesB	 14	 45	 1	 494	 18	 367	 left	 properTrial	 left	 1	 3.854
linesB	 14	 46	 1	 502	 -10	 375	 right	 properTrial	 right	 1	 2.927
linesB	 14	 47	 1	 504	 8	 365	 right	 properTrial	 left	 1	 4.247
linesB	 14	 48	 1	 515	 3	 361	 absent	 properTrial	 right	 0	 104.331
linesB	 14	 49	 1	 478	 -34	 383	 right	 properTrial	 right	 1	 2.848
linesB	 14	 50	 1	 499	 13	 370	 absent	 properTrial	 left	 1	 113.470
linesB	 14	 51	 1	 524	 12	 370	 absent	 properTrial	 right	 0	 71.241
linesB	 14	 52	 1	 469	 -43	 393	 right	 properTrial	 right	 1	 2.971
linesB	 14	 53	 1	 503	 -9	 377	 absent	 properTrial	 right	 0	 101.433
linesB	 14	 54	 1	 493	 -19	 389	 left	 properTrial	 right	 1	 118.026
linesB	 14	 55	 1	 475	 37	 393	 absent	 properTrial	 left	 0	 42.965
linesB	 14	 56	 1	 482	 -30	 381	 absent	 properTrial	 right	 0	 53.105
linesB	 14	 57	 1	 463	 -49	 393	 left	 properTrial	 right	 0	 41.481
linesB	 14	 58	 1	 497	 -15	 368	 right	 properTrial	 right	 1	 1.930
linesB	 14	 59	 1	 506	 -6	 360	 left	 properTrial	 right	 1	 39.224
linesB	 14	 60	 1	 475	 -37	 358	 left	 properTrial	 right	 1	 5.430
linesB	 14	 61	 1	 493	 19	 355	 absent	 properTrial	 left	 0	 57.316
linesB	 14	 62	 1	 475	 -37	 373	 right	 properTrial	 right	 1	 1.275
linesB	 14	 63	 1	 502	 10	 337	 right	 properTrial	 left	 1	 15.538
linesB	 14	 64	 1	 519	 -7	 325	 absent	 properTrial	 left	 0	 28.987
linesB	 14	 65	 1	 522	 -10	 364	 absent	 properTrial	 left	 0	 88.057
linesB	 14	 66	 1	 494	 18	 387	 left	 properTrial	 left	 1	 1.145
linesB	 14	 67	 1	 498	 -14	 360	 absent	 properTrial	 right	 0	 76.774
linesB	 14	 68	 1	 493	 -19	 383	 left	 properTrial	 right	 0	 46.136
linesB	 14	 69	 1	 509	 -3	 385	 absent	 properTrial	 right	 0	 54.410
linesB	 14	 70	 1	 491	 21	 379	 right	 properTrial	 left	 1	 4.747
linesB	 14	 71	 1	 501	 -11	 379	 left	 properTrial	 right	 1	 44.001
linesB	 14	 72	 1	 516	 -4	 368	 absent	 properTrial	 left	 0	 38.914
linesB	 14	 73	 1	 496	 -16	 387	 right	 properTrial	 right	 1	 1.552
linesB	 14	 74	 1	 527	 -15	 345	 right	 properTrial	 left	 1	 26.950
linesB	 14	 75	 1	 506	 -6	 373	 absent	 properTrial	 right	 0	 30.922
linesB	 14	 76	 1	 505	 -7	 359	 right	 properTrial	 right	 1	 1.222
linesB	 14	 77	 1	 505	 -7	 355	 absent	 properTrial	 right	 0	 35.414
linesB	 14	 78	 1	 496	 -16	 386	 left	 properTrial	 right	 0	 42.017
linesB	 14	 79	 1	 515	 3	 375	 absent	 properTrial	 right	 0	 45.538
linesB	 14	 80	 1	 492	 -20	 356	 absent	 properTrial	 right	 1	 44.666
linesB	 14	 81	 1	 515	 -3	 356	 absent	 properTrial	 left	 1	 29.431
linesB	 14	 82	 1	 503	 9	 371	 absent	 properTrial	 left	 0	 47.045
linesB	 14	 83	 1	 496	 -16	 365	 right	 properTrial	 right	 1	 1.399
linesB	 14	 84	 1	 524	 -12	 357	 left	 properTrial	 left	 1	 1.403
linesB	 14	 85	 1	 522	 -10	 370	 absent	 properTrial	 left	 1	 67.396
linesB	 14	 86	 1	 533	 21	 355	 right	 properTrial	 right	 1	 1.189
linesB	 14	 87	 1	 538	 -26	 340	 absent	 properTrial	 left	 1	 33.912
linesB	 14	 88	 1	 543	 31	 358	 left	 properTrial	 right	 0	 36.802
linesB	 14	 89	 1	 513	 -1	 368	 left	 properTrial	 left	 1	 1.471
linesB	 14	 90	 1	 514	 -2	 367	 left	 properTrial	 left	 1	 1.021
linesB	 14	 91	 1	 501	 11	 371	 absent	 properTrial	 left	 1	 52.078
linesB	 14	 92	 1	 473	 39	 366	 left	 properTrial	 left	 1	 1.070
linesB	 14	 93	 1	 504	 8	 360	 absent	 properTrial	 left	 0	 41.700
linesB	 14	 94	 1	 495	 -17	 371	 left	 properTrial	 right	 1	 25.236
linesB	 14	 95	 1	 488	 24	 374	 right	 properTrial	 left	 1	 2.936
linesB	 14	 96	 1	 516	 4	 382	 absent	 properTrial	 right	 0	 41.365
linesB	 14	 97	 1	 474	 38	 380	 absent	 properTrial	 left	 0	 22.375
linesB	 14	 98	 1	 502	 -10	 387	 absent	 properTrial	 right	 0	 35.655
linesB	 14	 99	 1	 496	 -16	 356	 absent	 properTrial	 right	 0	 64.210
linesB	 14	 100	 1	 507	 -5	 390	 left	 properTrial	 right	 0	 48.144
linesB	 14	 101	 1	 483	 -29	 385	 absent	 properTrial	 right	 0	 75.855
linesB	 14	 102	 1	 467	 45	 372	 right	 properTrial	 left	 1	 23.607
linesB	 14	 103	 1	 487	 25	 362	 absent	 properTrial	 left	 0	 57.685
linesB	 14	 104	 1	 505	 -7	 391	 left	 properTrial	 right	 1	 40.287
linesB	 14	 105	 1	 486	 -26	 378	 right	 properTrial	 right	 1	 1.880
linesB	 14	 106	 1	 510	 2	 375	 absent	 properTrial	 left	 1	 50.095
linesB	 14	 107	 1	 483	 29	 368	 left	 properTrial	 left	 1	 0.966
linesB	 14	 108	 1	 526	 -14	 354	 right	 properTrial	 left	 1	 2.233
linesB	 14	 109	 1	 519	 7	 365	 absent	 properTrial	 right	 1	 42.197
linesB	 14	 110	 1	 482	 -30	 388	 absent	 properTrial	 right	 0	 30.904
linesB	 14	 111	 1	 497	 -15	 389	 right	 properTrial	 right	 1	 1.154
linesB	 14	 112	 1	 508	 4	 392	 absent	 properTrial	 left	 0	 48.047
linesB	 15	 17	 1	 527	 -15	 381	 left	 properTrial	 left	 1	 1.824
linesB	 15	 18	 1	 538	 -26	 373	 right	 properTrial	 left	 0	 6.850
linesB	 15	 19	 1	 519	 7	 385	 right	 properTrial	 right	 1	 1.487
linesB	 15	 20	 1	 531	 19	 382	 left	 properTrial	 right	 0	 9.899
linesB	 15	 21	 1	 518	 -6	 371	 left	 properTrial	 left	 1	 1.625
linesB	 15	 22	 1	 523	 11	 386	 absent	 properTrial	 right	 1	 15.889
linesB	 15	 23	 1	 535	 23	 377	 absent	 properTrial	 right	 1	 10.498
linesB	 15	 24	 1	 540	 28	 379	 right	 properTrial	 right	 1	 2.621
linesB	 15	 25	 1	 529	 -17	 378	 right	 properTrial	 left	 0	 12.651
linesB	 15	 26	 1	 517	 -5	 393	 absent	 properTrial	 left	 1	 18.998
linesB	 15	 27	 1	 521	 -9	 384	 absent	 properTrial	 left	 1	 9.315
linesB	 15	 28	 1	 528	 -16	 372	 absent	 properTrial	 left	 1	 13.522
linesB	 15	 29	 1	 518	 -6	 373	 absent	 properTrial	 left	 1	 14.725
linesB	 15	 30	 1	 524	 12	 374	 absent	 properTrial	 right	 1	 9.983
linesB	 15	 31	 1	 522	 10	 383	 right	 properTrial	 right	 1	 1.174
linesB	 15	 32	 1	 523	 -11	 372	 absent	 properTrial	 left	 1	 8.905
linesB	 15	 33	 1	 517	 5	 371	 left	 properTrial	 right	 0	 8.451
linesB	 15	 34	 1	 509	 -3	 363	 right	 properTrial	 right	 1	 1.227
linesB	 15	 35	 1	 525	 -13	 376	 absent	 properTrial	 left	 1	 12.648
linesB	 15	 36	 1	 532	 -20	 365	 absent	 properTrial	 left	 1	 11.861
linesB	 15	 37	 1	 526	 -14	 381	 absent	 properTrial	 left	 1	 10.585
linesB	 15	 38	 1	 527	 15	 385	 absent	 properTrial	 right	 1	 7.743
linesB	 15	 39	 1	 519	 7	 381	 left	 properTrial	 right	 1	 4.700
linesB	 15	 40	 1	 524	 12	 365	 left	 properTrial	 right	 1	 6.246
linesB	 15	 41	 1	 509	 3	 368	 absent	 properTrial	 left	 1	 8.907
linesB	 15	 42	 1	 513	 -1	 361	 absent	 properTrial	 left	 1	 12.295
linesB	 15	 43	 1	 510	 -2	 378	 absent	 properTrial	 right	 1	 11.827
linesB	 15	 44	 1	 506	 -6	 372	 absent	 properTrial	 right	 1	 11.727
linesB	 15	 45	 1	 510	 2	 370	 left	 properTrial	 left	 1	 2.151
linesB	 15	 46	 1	 511	 -1	 360	 right	 properTrial	 right	 1	 0.984
linesB	 15	 47	 1	 575	 -63	 319	 right	 properTrial	 left	 0	 8.375
linesB	 15	 48	 1	 501	 -11	 343	 absent	 properTrial	 right	 1	 10.759
linesB	 15	 49	 1	 509	 -3	 366	 right	 properTrial	 right	 1	 0.803
linesB	 15	 50	 1	 507	 5	 348	 absent	 properTrial	 left	 1	 11.685
linesB	 15	 51	 1	 514	 2	 358	 absent	 properTrial	 right	 1	 9.078
linesB	 15	 52	 1	 502	 -10	 364	 right	 properTrial	 right	 1	 0.804
linesB	 15	 53	 1	 509	 -3	 369	 absent	 properTrial	 right	 1	 8.775
linesB	 15	 54	 1	 511	 -1	 368	 left	 properTrial	 right	 1	 7.531
linesB	 15	 55	 1	 506	 6	 372	 absent	 properTrial	 left	 1	 9.112
linesB	 15	 56	 1	 509	 -3	 370	 absent	 properTrial	 right	 1	 10.076
linesB	 15	 57	 1	 510	 -2	 368	 left	 properTrial	 right	 0	 8.422
linesB	 15	 58	 1	 498	 -14	 366	 right	 properTrial	 right	 1	 2.179
linesB	 15	 59	 1	 505	 -7	 376	 left	 properTrial	 right	 0	 11.350
linesB	 15	 60	 1	 503	 -9	 369	 left	 properTrial	 right	 0	 12.380
linesB	 15	 61	 1	 497	 15	 363	 absent	 properTrial	 left	 1	 14.451
linesB	 15	 62	 1	 505	 -7	 358	 right	 properTrial	 right	 1	 0.853
linesB	 15	 63	 1	 511	 1	 368	 right	 properTrial	 left	 0	 10.005
linesB	 15	 64	 1	 507	 5	 368	 absent	 properTrial	 left	 1	 20.909
linesB	 15	 65	 1	 517	 -5	 383	 absent	 properTrial	 left	 1	 12.886
linesB	 15	 66	 1	 519	 -7	 369	 left	 properTrial	 left	 1	 0.736
linesB	 15	 67	 1	 524	 12	 377	 absent	 properTrial	 right	 1	 14.776
linesB	 15	 68	 1	 509	 -3	 372	 left	 properTrial	 right	 0	 16.078
linesB	 15	 69	 1	 507	 -5	 363	 absent	 properTrial	 right	 1	 9.957
linesB	 15	 70	 1	 509	 3	 379	 right	 properTrial	 left	 0	 11.961
linesB	 15	 71	 1	 507	 -5	 361	 left	 properTrial	 right	 1	 4.264
linesB	 15	 72	 1	 511	 1	 364	 absent	 properTrial	 left	 1	 18.328
linesB	 15	 73	 1	 517	 5	 364	 right	 properTrial	 right	 1	 1.208
linesB	 15	 74	 1	 522	 -10	 369	 right	 properTrial	 left	 1	 6.350
linesB	 15	 75	 1	 507	 -5	 370	 absent	 properTrial	 right	 1	 13.447
linesB	 15	 76	 1	 512	 0	 373	 right	 properTrial	 right	 1	 0.805
linesB	 15	 77	 1	 515	 3	 365	 absent	 properTrial	 right	 1	 17.253
linesB	 15	 78	 1	 503	 -9	 368	 left	 properTrial	 right	 1	 2.733
linesB	 15	 79	 1	 508	 -4	 375	 absent	 properTrial	 right	 1	 13.677
linesB	 15	 80	 1	 516	 4	 369	 absent	 properTrial	 right	 1	 9.145
linesB	 15	 81	 1	 514	 -2	 368	 absent	 properTrial	 left	 1	 9.848
linesB	 15	 82	 1	 510	 2	 383	 absent	 properTrial	 left	 1	 10.978
linesB	 15	 83	 1	 514	 2	 369	 right	 properTrial	 right	 1	 0.952
linesB	 15	 84	 1	 511	 1	 389	 left	 properTrial	 left	 1	 0.961
linesB	 15	 85	 1	 505	 7	 382	 absent	 properTrial	 left	 1	 13.561
linesB	 15	 86	 1	 500	 -12	 376	 right	 properTrial	 right	 1	 0.831
linesB	 15	 87	 1	 508	 4	 380	 absent	 properTrial	 left	 1	 9.745
linesB	 15	 88	 1	 503	 -9	 374	 left	 properTrial	 right	 1	 5.905
linesB	 15	 89	 1	 516	 -4	 365	 left	 properTrial	 left	 1	 1.326
linesB	 15	 90	 1	 522	 -10	 354	 left	 properTrial	 left	 1	 1.244
linesB	 15	 91	 1	 524	 -12	 356	 absent	 properTrial	 left	 1	 7.928
linesB	 15	 92	 1	 510	 2	 365	 left	 properTrial	 left	 1	 0.949
linesB	 15	 93	 1	 520	 -8	 365	 absent	 properTrial	 left	 1	 7.486
linesB	 15	 94	 1	 520	 8	 363	 left	 properTrial	 right	 0	 7.563
linesB	 15	 95	 1	 513	 -1	 345	 right	 properTrial	 left	 1	 1.750
linesB	 15	 96	 1	 520	 8	 354	 absent	 properTrial	 right	 1	 7.872
linesB	 15	 97	 1	 509	 3	 364	 absent	 properTrial	 left	 1	 8.782
linesB	 15	 98	 1	 515	 3	 361	 absent	 properTrial	 right	 1	 12.566
linesB	 15	 99	 1	 517	 5	 363	 absent	 properTrial	 right	 1	 7.152
linesB	 15	 100	 1	 515	 3	 356	 left	 properTrial	 right	 0	 8.531
linesB	 15	 101	 1	 511	 -1	 364	 absent	 properTrial	 right	 1	 12.577
linesB	 15	 102	 1	 513	 -1	 363	 right	 properTrial	 left	 0	 9.435
linesB	 15	 103	 1	 499	 13	 348	 absent	 properTrial	 left	 1	 11.832
linesB	 15	 104	 1	 514	 2	 361	 left	 properTrial	 right	 0	 16.056
linesB	 15	 105	 1	 505	 -7	 349	 right	 properTrial	 right	 1	 0.759
linesB	 15	 106	 1	 512	 0	 350	 absent	 properTrial	 left	 1	 18.216
linesB	 15	 107	 1	 509	 3	 343	 left	 properTrial	 left	 1	 0.810
linesB	 15	 108	 1	 510	 2	 363	 right	 properTrial	 left	 0	 15.057
linesB	 15	 109	 1	 509	 -3	 348	 absent	 properTrial	 right	 1	 13.127
linesB	 15	 110	 1	 516	 4	 345	 absent	 properTrial	 right	 1	 10.219
linesB	 15	 111	 1	 501	 -11	 359	 right	 properTrial	 right	 1	 0.746
linesB	 15	 112	 1	 514	 -2	 329	 absent	 properTrial	 left	 1	 13.855
linesB	 21	 17	 1	 509	 3	 393	 left	 properTrial	 left	 1	 1.253
linesB	 21	 18	 1	 504	 8	 405	 right	 properTrial	 left	 1	 5.894
linesB	 21	 19	 1	 502	 -10	 381	 right	 properTrial	 right	 1	 2.202
linesB	 21	 20	 1	 514	 2	 375	 left	 properTrial	 right	 0	 6.769
linesB	 21	 21	 1	 497	 15	 393	 left	 properTrial	 left	 1	 3.071
linesB	 21	 22	 1	 511	 -1	 381	 absent	 properTrial	 right	 1	 3.588
linesB	 21	 23	 1	 513	 1	 374	 absent	 properTrial	 right	 1	 3.248
linesB	 21	 24	 1	 513	 1	 388	 right	 properTrial	 right	 1	 2.870
linesB	 21	 25	 1	 505	 7	 392	 right	 properTrial	 left	 0	 2.860
linesB	 21	 26	 1	 504	 8	 389	 absent	 properTrial	 left	 0	 6.333
linesB	 21	 27	 1	 500	 12	 388	 absent	 properTrial	 left	 1	 3.661
linesB	 21	 28	 1	 513	 -1	 390	 absent	 properTrial	 left	 0	 2.182
linesB	 21	 29	 1	 517	 -5	 393	 absent	 properTrial	 left	 1	 2.988
linesB	 21	 30	 1	 503	 -9	 385	 absent	 properTrial	 right	 1	 2.170
linesB	 21	 31	 1	 507	 -5	 394	 right	 properTrial	 right	 1	 2.189
linesB	 21	 32	 1	 514	 -2	 375	 absent	 properTrial	 left	 1	 3.341
linesB	 21	 33	 1	 517	 5	 378	 left	 properTrial	 right	 0	 2.559
linesB	 21	 34	 1	 514	 2	 388	 right	 properTrial	 right	 1	 1.073
linesB	 21	 35	 1	 506	 6	 391	 absent	 properTrial	 left	 1	 3.737
linesB	 21	 36	 1	 516	 -4	 391	 absent	 properTrial	 left	 1	 5.427
linesB	 21	 37	 1	 502	 10	 370	 absent	 properTrial	 left	 1	 3.755
linesB	 21	 38	 1	 511	 -1	 382	 absent	 properTrial	 right	 1	 2.616
linesB	 21	 39	 1	 505	 -7	 385	 left	 properTrial	 right	 0	 3.170
linesB	 21	 40	 1	 499	 -13	 392	 left	 properTrial	 right	 0	 6.734
linesB	 21	 41	 1	 514	 -2	 377	 absent	 properTrial	 left	 1	 3.999
linesB	 21	 42	 1	 516	 -4	 374	 absent	 properTrial	 left	 1	 6.804
linesB	 21	 43	 1	 508	 -4	 386	 absent	 properTrial	 right	 1	 3.650
linesB	 21	 44	 1	 510	 -2	 385	 absent	 properTrial	 right	 1	 4.758
linesB	 21	 45	 1	 505	 7	 382	 left	 properTrial	 left	 1	 4.415
linesB	 21	 46	 1	 516	 4	 372	 right	 properTrial	 right	 1	 2.271
linesB	 21	 47	 1	 517	 -5	 361	 right	 properTrial	 left	 0	 2.524
linesB	 21	 48	 1	 512	 0	 363	 absent	 properTrial	 right	 1	 3.539
linesB	 21	 49	 1	 519	 7	 374	 right	 properTrial	 right	 1	 1.112
linesB	 21	 50	 1	 514	 -2	 369	 absent	 properTrial	 left	 1	 4.485
linesB	 21	 51	 1	 511	 -1	 392	 absent	 properTrial	 right	 1	 2.677
linesB	 21	 52	 1	 511	 -1	 376	 right	 properTrial	 right	 1	 1.360
linesB	 21	 53	 1	 512	 0	 382	 absent	 properTrial	 right	 1	 3.616
linesB	 21	 54	 1	 512	 0	 385	 left	 properTrial	 right	 0	 5.759
linesB	 21	 55	 1	 506	 6	 362	 absent	 properTrial	 left	 1	 5.407
linesB	 21	 56	 1	 511	 -1	 377	 absent	 properTrial	 right	 0	 6.040
linesB	 21	 57	 1	 508	 -4	 359	 left	 properTrial	 right	 0	 5.054
linesB	 21	 58	 1	 508	 -4	 348	 right	 properTrial	 right	 1	 1.813
linesB	 21	 59	 1	 519	 7	 364	 left	 properTrial	 right	 0	 6.825
linesB	 21	 60	 1	 508	 -4	 351	 left	 properTrial	 right	 0	 10.116
linesB	 21	 61	 1	 512	 0	 365	 absent	 properTrial	 left	 1	 9.225
linesB	 21	 62	 1	 522	 10	 362	 right	 properTrial	 right	 1	 0.902
linesB	 21	 63	 1	 516	 -4	 358	 right	 properTrial	 left	 1	 6.529
linesB	 21	 64	 1	 515	 -3	 375	 absent	 properTrial	 left	 1	 10.308
linesB	 21	 65	 1	 509	 3	 383	 absent	 properTrial	 left	 1	 9.041
linesB	 21	 66	 1	 510	 2	 376	 left	 properTrial	 left	 1	 0.747
linesB	 21	 67	 1	 507	 -5	 378	 absent	 properTrial	 right	 1	 9.935
linesB	 21	 68	 1	 511	 -1	 389	 left	 properTrial	 right	 0	 7.987
linesB	 21	 69	 1	 510	 -2	 382	 absent	 properTrial	 right	 1	 13.786
linesB	 21	 70	 1	 514	 -2	 382	 right	 properTrial	 left	 1	 3.372
linesB	 21	 71	 1	 504	 -8	 395	 left	 properTrial	 right	 0	 10.626
linesB	 21	 72	 1	 505	 7	 373	 absent	 properTrial	 left	 1	 9.618
linesB	 21	 73	 1	 511	 -1	 387	 right	 properTrial	 right	 1	 3.478
linesB	 21	 74	 1	 507	 5	 335	 right	 properTrial	 left	 1	 5.333
linesB	 21	 75	 1	 509	 -3	 382	 absent	 properTrial	 right	 1	 10.539
linesB	 21	 76	 1	 513	 1	 381	 right	 properTrial	 right	 1	 0.928
linesB	 21	 77	 1	 507	 -5	 384	 absent	 properTrial	 right	 1	 10.187
linesB	 21	 78	 1	 505	 -7	 393	 left	 properTrial	 right	 1	 6.513
linesB	 21	 79	 1	 492	 -20	 392	 absent	 properTrial	 right	 1	 10.194
linesB	 21	 80	 1	 500	 -12	 364	 absent	 properTrial	 right	 1	 6.910
linesB	 21	 81	 1	 508	 4	 373	 absent	 properTrial	 left	 1	 9.762
linesB	 21	 82	 1	 506	 6	 385	 absent	 properTrial	 left	 1	 11.783
linesB	 21	 83	 1	 512	 0	 378	 right	 properTrial	 right	 1	 1.663
linesB	 21	 84	 1	 503	 9	 387	 left	 properTrial	 left	 1	 1.297
linesB	 21	 85	 1	 505	 7	 388	 absent	 properTrial	 left	 1	 9.868
linesB	 21	 86	 1	 501	 -11	 379	 right	 properTrial	 right	 1	 0.770
linesB	 21	 87	 1	 510	 2	 384	 absent	 properTrial	 left	 1	 8.237
linesB	 21	 88	 1	 513	 1	 377	 left	 properTrial	 right	 0	 6.950
linesB	 21	 89	 1	 498	 14	 359	 left	 properTrial	 left	 1	 0.828
linesB	 21	 90	 1	 515	 -3	 365	 left	 properTrial	 left	 1	 0.742
linesB	 21	 91	 1	 511	 1	 380	 absent	 properTrial	 left	 1	 11.073
linesB	 21	 92	 1	 505	 7	 395	 left	 properTrial	 left	 1	 0.801
linesB	 21	 93	 1	 511	 1	 366	 absent	 properTrial	 left	 1	 7.020
linesB	 21	 94	 1	 514	 2	 388	 left	 properTrial	 right	 0	 6.780
linesB	 21	 95	 1	 509	 3	 370	 right	 properTrial	 left	 1	 2.349
linesB	 21	 96	 1	 512	 0	 372	 absent	 properTrial	 right	 1	 10.182
linesB	 21	 97	 1	 515	 -3	 370	 absent	 properTrial	 left	 1	 6.861
linesB	 21	 98	 1	 517	 5	 370	 absent	 properTrial	 right	 1	 9.192
linesB	 21	 99	 1	 520	 8	 379	 absent	 properTrial	 right	 1	 9.755
linesB	 21	 100	 1	 513	 1	 387	 left	 properTrial	 right	 0	 10.052
linesB	 21	 101	 1	 508	 -4	 392	 absent	 properTrial	 right	 1	 8.034
linesB	 21	 102	 1	 507	 5	 367	 right	 properTrial	 left	 1	 8.823
linesB	 21	 103	 1	 500	 12	 363	 absent	 properTrial	 left	 1	 14.480
linesB	 21	 104	 1	 506	 -6	 357	 left	 properTrial	 right	 1	 3.557
linesB	 21	 105	 1	 511	 -1	 381	 right	 properTrial	 right	 1	 1.237
linesB	 21	 106	 1	 506	 6	 378	 absent	 properTrial	 left	 0	 5.675
linesB	 21	 107	 1	 505	 7	 364	 left	 properTrial	 left	 1	 0.695
linesB	 21	 108	 1	 509	 3	 364	 right	 properTrial	 left	 1	 4.839
linesB	 21	 109	 1	 505	 -7	 371	 absent	 properTrial	 right	 0	 3.366
linesB	 21	 110	 1	 511	 -1	 362	 absent	 properTrial	 right	 0	 5.444
linesB	 21	 111	 1	 504	 -8	 369	 right	 properTrial	 right	 1	 0.887
linesB	 21	 112	 1	 509	 3	 370	 absent	 properTrial	 left	 1	 3.758
linesB	 22	 17	 1	 516	 -4	 372	 absent	 properTrial	 left	 1	 2.857
linesB	 22	 18	 1	 508	 -4	 393	 left	 properTrial	 right	 1	 2.118
linesB	 22	 19	 1	 509	 -3	 377	 absent	 properTrial	 right	 0	 3.724
linesB	 22	 20	 1	 499	 -13	 400	 absent	 properTrial	 right	 1	 3.096
linesB	 22	 21	 1	 513	 1	 376	 absent	 properTrial	 right	 0	 3.152
linesB	 22	 22	 1	 514	 -2	 388	 absent	 properTrial	 left	 1	 2.436
linesB	 22	 23	 1	 504	 -8	 378	 right	 properTrial	 right	 1	 1.213
linesB	 22	 24	 1	 504	 8	 387	 right	 properTrial	 left	 0	 1.566
linesB	 22	 25	 1	 500	 -12	 386	 left	 properTrial	 right	 1	 2.974
linesB	 22	 26	 1	 510	 2	 404	 absent	 properTrial	 left	 0	 3.566
linesB	 22	 27	 1	 510	 2	 387	 left	 properTrial	 left	 1	 1.149
linesB	 22	 28	 1	 510	 -2	 382	 absent	 properTrial	 right	 1	 1.803
linesB	 22	 29	 1	 501	 11	 378	 right	 properTrial	 left	 0	 2.278
linesB	 22	 30	 1	 512	 0	 379	 left	 properTrial	 left	 1	 4.444
linesB	 22	 31	 1	 525	 13	 418	 absent	 properTrial	 right	 1	 3.598
linesB	 22	 32	 1	 479	 33	 294	 right	 properTrial	 left	 0	 2.235
linesB	 22	 33	 1	 502	 -10	 381	 right	 properTrial	 right	 1	 1.371
linesB	 22	 34	 1	 508	 4	 386	 left	 properTrial	 left	 1	 1.208
linesB	 22	 35	 1	 497	 -15	 378	 absent	 properTrial	 right	 1	 1.232
linesB	 22	 36	 1	 500	 12	 377	 absent	 properTrial	 left	 1	 3.356
linesB	 22	 37	 1	 504	 -8	 381	 left	 properTrial	 right	 0	 2.040
linesB	 22	 38	 1	 497	 -15	 378	 right	 properTrial	 right	 1	 0.939
linesB	 22	 39	 1	 494	 -18	 391	 absent	 properTrial	 right	 1	 1.635
linesB	 22	 40	 1	 499	 13	 388	 absent	 properTrial	 left	 0	 3.057
linesB	 22	 41	 1	 507	 5	 392	 left	 properTrial	 left	 1	 0.968
linesB	 22	 42	 1	 490	 -22	 393	 absent	 properTrial	 right	 1	 1.919
linesB	 22	 43	 1	 492	 20	 393	 right	 properTrial	 left	 0	 1.736
linesB	 22	 44	 1	 497	 15	 397	 absent	 properTrial	 left	 1	 1.579
linesB	 22	 45	 1	 497	 15	 400	 absent	 properTrial	 left	 0	 4.069
linesB	 22	 46	 1	 498	 14	 336	 right	 properTrial	 left	 1	 3.253
linesB	 22	 47	 1	 496	 16	 425	 left	 properTrial	 left	 0	 3.594
linesB	 22	 48	 1	 506	 -6	 411	 right	 properTrial	 right	 1	 1.168
linesB	 22	 49	 1	 497	 -15	 410	 left	 properTrial	 right	 1	 2.478
linesB	 22	 50	 1	 503	 9	 404	 absent	 properTrial	 left	 0	 2.752
linesB	 22	 51	 1	 503	 9	 400	 absent	 properTrial	 left	 1	 3.490
linesB	 22	 52	 1	 517	 -5	 422	 absent	 properTrial	 left	 0	 1.446
linesB	 22	 53	 1	 511	 1	 418	 left	 properTrial	 left	 1	 2.445
linesB	 22	 54	 1	 495	 -17	 407	 absent	 properTrial	 right	 0	 2.127
linesB	 22	 55	 1	 502	 -10	 387	 absent	 properTrial	 right	 1	 4.092
linesB	 22	 56	 1	 494	 18	 410	 right	 properTrial	 left	 0	 3.985
linesB	 22	 57	 1	 498	 -14	 412	 absent	 properTrial	 right	 1	 3.754
linesB	 22	 58	 1	 501	 11	 406	 left	 properTrial	 left	 1	 2.087
linesB	 22	 59	 1	 487	 -25	 404	 absent	 properTrial	 right	 0	 2.466
linesB	 22	 60	 1	 503	 -9	 398	 left	 properTrial	 right	 1	 1.857
linesB	 22	 61	 1	 501	 -11	 396	 right	 properTrial	 right	 1	 2.401
linesB	 22	 62	 1	 493	 19	 397	 right	 properTrial	 left	 1	 1.635
linesB	 22	 63	 1	 491	 21	 401	 absent	 properTrial	 left	 0	 2.283
linesB	 22	 64	 1	 511	 1	 429	 absent	 properTrial	 left	 1	 2.056
linesB	 22	 65	 1	 508	 -4	 384	 right	 properTrial	 right	 1	 1.180
linesB	 22	 66	 1	 512	 0	 400	 absent	 properTrial	 left	 0	 2.588
linesB	 22	 67	 1	 508	 -4	 399	 right	 properTrial	 right	 1	 0.848
linesB	 22	 68	 1	 510	 -2	 399	 left	 properTrial	 right	 0	 1.548
linesB	 22	 69	 1	 512	 0	 417	 left	 properTrial	 right	 1	 2.135
linesB	 22	 70	 1	 508	 -4	 421	 left	 properTrial	 right	 1	 2.371
linesB	 22	 71	 1	 503	 9	 402	 right	 properTrial	 left	 1	 2.053
linesB	 22	 72	 1	 502	 -10	 425	 left	 properTrial	 right	 1	 2.094
linesB	 22	 73	 1	 498	 -14	 405	 absent	 properTrial	 right	 0	 1.390
linesB	 22	 74	 1	 502	 -10	 379	 absent	 properTrial	 right	 0	 1.358
linesB	 22	 75	 1	 500	 -12	 408	 absent	 properTrial	 right	 0	 1.902
linesB	 22	 76	 1	 507	 -5	 403	 absent	 properTrial	 right	 1	 0.722
linesB	 22	 77	 1	 509	 3	 394	 absent	 properTrial	 left	 0	 4.760
linesB	 22	 78	 1	 510	 -2	 413	 absent	 properTrial	 right	 1	 1.561
linesB	 22	 79	 1	 504	 -8	 415	 absent	 properTrial	 right	 0	 5.152
linesB	 22	 80	 1	 506	 -6	 413	 absent	 properTrial	 right	 1	 0.517
linesB	 22	 81	 1	 510	 2	 409	 left	 properTrial	 left	 1	 2.121
linesB	 22	 82	 1	 511	 -1	 428	 right	 properTrial	 right	 1	 1.526
linesB	 22	 83	 1	 499	 13	 403	 absent	 properTrial	 left	 1	 1.640
linesB	 22	 84	 1	 501	 11	 406	 right	 properTrial	 left	 0	 3.489
linesB	 22	 85	 1	 513	 1	 416	 right	 properTrial	 right	 1	 1.342
linesB	 22	 86	 1	 512	 0	 416	 absent	 properTrial	 left	 0	 6.548
linesB	 22	 87	 1	 509	 -3	 417	 right	 properTrial	 right	 1	 0.962
linesB	 22	 88	 1	 512	 0	 392	 absent	 properTrial	 left	 0	 1.600
linesB	 22	 89	 1	 509	 -3	 413	 absent	 properTrial	 right	 0	 1.763
linesB	 22	 90	 1	 503	 -9	 410	 absent	 properTrial	 right	 1	 4.277
linesB	 22	 91	 1	 509	 3	 420	 absent	 properTrial	 left	 1	 4.281
linesB	 22	 92	 1	 506	 6	 410	 absent	 properTrial	 left	 0	 3.798
linesB	 22	 93	 1	 519	 -7	 415	 left	 properTrial	 left	 1	 0.899
linesB	 22	 94	 1	 507	 -5	 402	 absent	 properTrial	 right	 1	 2.595
linesB	 22	 95	 1	 505	 7	 404	 left	 properTrial	 left	 1	 1.323
linesB	 22	 96	 1	 505	 7	 403	 right	 properTrial	 left	 0	 2.669
linesB	 22	 97	 1	 511	 1	 422	 right	 properTrial	 left	 0	 6.477
linesB	 22	 98	 1	 522	 10	 424	 left	 properTrial	 right	 1	 1.694
linesB	 22	 99	 1	 511	 -1	 414	 left	 properTrial	 right	 1	 3.094
linesB	 22	 100	 1	 510	 -2	 419	 right	 properTrial	 right	 1	 1.467
linesB	 22	 101	 1	 510	 -2	 418	 absent	 properTrial	 right	 0	 1.834
linesB	 22	 102	 1	 511	 1	 395	 left	 properTrial	 left	 0	 1.910
linesB	 22	 103	 1	 511	 1	 422	 right	 properTrial	 left	 1	 3.414
linesB	 22	 104	 1	 505	 -7	 404	 right	 properTrial	 right	 1	 0.984
linesB	 22	 105	 1	 512	 0	 404	 absent	 properTrial	 right	 0	 2.849
linesB	 22	 106	 1	 502	 10	 404	 absent	 properTrial	 left	 1	 3.467
linesB	 22	 107	 1	 500	 -12	 401	 left	 properTrial	 right	 1	 2.948
linesB	 22	 108	 1	 505	 -7	 410	 absent	 properTrial	 right	 0	 2.380
linesB	 22	 109	 1	 510	 2	 417	 absent	 properTrial	 left	 1	 3.527
linesB	 22	 110	 1	 503	 -9	 410	 right	 properTrial	 right	 1	 0.998
linesB	 22	 111	 1	 506	 -6	 404	 absent	 properTrial	 right	 1	 4.151
linesB	 22	 112	 1	 514	 2	 404	 absent	 properTrial	 right	 1	 4.532
linesB	 23	 17	 1	 503	 9	 394	 left	 properTrial	 left	 1	 7.227
linesB	 23	 18	 1	 493	 19	 381	 right	 properTrial	 left	 0	 14.220
linesB	 23	 19	 1	 494	 -18	 381	 right	 properTrial	 right	 0	 18.297
linesB	 23	 20	 1	 482	 -30	 374	 left	 properTrial	 right	 1	 2.936
linesB	 23	 21	 1	 491	 21	 386	 left	 properTrial	 left	 1	 1.011
linesB	 23	 22	 1	 501	 -11	 377	 absent	 properTrial	 right	 0	 17.618
linesB	 23	 23	 1	 491	 -21	 385	 absent	 properTrial	 right	 1	 9.897
linesB	 23	 24	 1	 487	 -25	 373	 right	 properTrial	 right	 1	 14.179
linesB	 23	 25	 1	 490	 22	 367	 right	 properTrial	 left	 1	 3.098
linesB	 23	 26	 1	 499	 13	 389	 absent	 properTrial	 left	 0	 3.681
linesB	 23	 27	 1	 487	 25	 388	 absent	 properTrial	 left	 1	 11.658
linesB	 23	 28	 1	 483	 29	 380	 absent	 properTrial	 left	 1	 15.595
linesB	 23	 29	 1	 483	 29	 379	 absent	 properTrial	 left	 0	 4.517
linesB	 23	 30	 1	 492	 -20	 372	 absent	 properTrial	 right	 0	 4.241
linesB	 23	 31	 1	 489	 -23	 386	 right	 properTrial	 right	 1	 16.688
linesB	 23	 32	 1	 495	 17	 390	 absent	 properTrial	 left	 0	 8.664
linesB	 23	 33	 1	 503	 -9	 383	 left	 properTrial	 right	 0	 16.227
linesB	 23	 34	 1	 497	 -15	 383	 right	 properTrial	 right	 1	 11.333
linesB	 23	 35	 1	 501	 11	 383	 absent	 properTrial	 left	 1	 19.929
linesB	 23	 36	 1	 497	 15	 383	 absent	 properTrial	 left	 0	 4.697
linesB	 23	 37	 1	 490	 22	 382	 absent	 properTrial	 left	 0	 2.103
linesB	 23	 38	 1	 490	 -22	 393	 absent	 properTrial	 right	 1	 17.160
linesB	 23	 39	 1	 488	 -24	 392	 left	 properTrial	 right	 0	 15.262
linesB	 23	 40	 1	 487	 -25	 385	 left	 properTrial	 right	 0	 16.449
linesB	 23	 41	 1	 511	 1	 364	 absent	 properTrial	 left	 1	 18.083
linesB	 23	 42	 1	 493	 19	 357	 absent	 properTrial	 left	 1	 17.365
linesB	 23	 43	 1	 489	 -23	 373	 absent	 properTrial	 right	 1	 20.568
linesB	 23	 44	 1	 496	 -16	 370	 absent	 properTrial	 right	 1	 22.372
linesB	 23	 45	 1	 492	 20	 367	 left	 properTrial	 left	 0	 20.493
linesB	 23	 46	 1	 502	 -10	 350	 right	 properTrial	 right	 1	 3.288
linesB	 23	 47	 1	 493	 19	 366	 right	 properTrial	 left	 1	 22.414
linesB	 23	 48	 1	 489	 -23	 372	 absent	 properTrial	 right	 1	 22.658
linesB	 23	 49	 1	 499	 -13	 360	 right	 properTrial	 right	 1	 1.124
linesB	 23	 50	 1	 495	 17	 367	 absent	 properTrial	 left	 1	 21.838
linesB	 23	 51	 1	 501	 -11	 378	 absent	 properTrial	 right	 1	 13.430
linesB	 23	 52	 1	 506	 -6	 362	 right	 properTrial	 right	 1	 1.390
linesB	 23	 53	 1	 508	 -4	 380	 absent	 properTrial	 right	 1	 16.292
linesB	 23	 54	 1	 504	 -8	 367	 left	 properTrial	 right	 0	 17.368
linesB	 23	 55	 1	 501	 11	 358	 absent	 properTrial	 left	 1	 15.141
linesB	 23	 56	 1	 488	 -24	 365	 absent	 properTrial	 right	 1	 20.141
linesB	 23	 57	 1	 490	 -22	 383	 left	 properTrial	 right	 1	 13.476
linesB	 23	 58	 1	 499	 -13	 365	 right	 properTrial	 right	 1	 2.742
linesB	 23	 59	 1	 504	 -8	 378	 left	 properTrial	 right	 1	 29.523
linesB	 23	 60	 1	 492	 -20	 352	 left	 properTrial	 right	 0	 21.672
linesB	 23	 61	 1	 495	 17	 381	 absent	 properTrial	 left	 0	 10.760
linesB	 23	 62	 1	 502	 -10	 370	 right	 properTrial	 right	 1	 2.537
linesB	 23	 63	 1	 490	 22	 386	 right	 properTrial	 left	 0	 24.177
linesB	 23	 64	 1	 490	 22	 375	 absent	 properTrial	 left	 1	 22.910
linesB	 23	 65	 1	 523	 -11	 347	 absent	 properTrial	 left	 1	 21.019
linesB	 23	 66	 1	 521	 -9	 371	 left	 properTrial	 left	 1	 1.415
linesB	 23	 67	 1	 532	 20	 351	 absent	 properTrial	 right	 1	 21.913
linesB	 23	 68	 1	 512	 0	 341	 left	 properTrial	 right	 0	 25.006
linesB	 23	 69	 1	 518	 6	 361	 absent	 properTrial	 right	 1	 18.557
linesB	 23	 70	 1	 533	 -21	 345	 right	 properTrial	 left	 0	 18.370
linesB	 23	 71	 1	 498	 -14	 359	 left	 properTrial	 right	 0	 21.722
linesB	 23	 72	 1	 505	 7	 346	 absent	 properTrial	 left	 1	 16.604
linesB	 23	 73	 1	 504	 -8	 362	 right	 properTrial	 right	 1	 1.812
linesB	 23	 74	 1	 503	 9	 363	 right	 properTrial	 left	 0	 11.270
linesB	 23	 75	 1	 505	 -7	 363	 absent	 properTrial	 right	 1	 20.476
linesB	 23	 76	 1	 506	 -6	 341	 right	 properTrial	 right	 1	 1.007
linesB	 23	 77	 1	 505	 -7	 353	 absent	 properTrial	 right	 1	 15.396
linesB	 23	 78	 1	 518	 6	 355	 left	 properTrial	 right	 0	 11.511
linesB	 23	 79	 1	 502	 -10	 355	 absent	 properTrial	 right	 1	 18.110
linesB	 23	 80	 1	 516	 4	 349	 absent	 properTrial	 right	 1	 20.899
linesB	 23	 81	 1	 519	 -7	 345	 absent	 properTrial	 left	 1	 20.115
linesB	 23	 82	 1	 519	 -7	 339	 absent	 properTrial	 left	 1	 21.592
linesB	 23	 83	 1	 520	 8	 360	 right	 properTrial	 right	 1	 2.255
linesB	 23	 84	 1	 511	 1	 352	 left	 properTrial	 left	 1	 1.758
linesB	 23	 85	 1	 526	 -14	 350	 absent	 properTrial	 left	 1	 21.150
linesB	 23	 86	 1	 518	 6	 362	 right	 properTrial	 right	 1	 0.859
linesB	 23	 87	 1	 527	 -15	 340	 absent	 properTrial	 left	 1	 24.829
linesB	 23	 88	 1	 527	 15	 357	 left	 properTrial	 right	 1	 2.456
linesB	 23	 89	 1	 513	 -1	 368	 left	 properTrial	 left	 1	 1.006
linesB	 23	 90	 1	 520	 -8	 371	 left	 properTrial	 left	 1	 1.098
linesB	 23	 91	 1	 521	 -9	 364	 absent	 properTrial	 left	 1	 16.802
linesB	 23	 92	 1	 519	 -7	 357	 left	 properTrial	 left	 1	 1.732
linesB	 23	 93	 1	 516	 -4	 360	 absent	 properTrial	 left	 1	 13.557
linesB	 23	 94	 1	 520	 8	 352	 left	 properTrial	 right	 0	 12.450
linesB	 23	 95	 1	 511	 1	 360	 right	 properTrial	 left	 1	 5.058
linesB	 23	 96	 1	 515	 3	 334	 absent	 properTrial	 right	 1	 26.617
linesB	 23	 97	 1	 511	 1	 364	 absent	 properTrial	 left	 1	 17.564
linesB	 23	 98	 1	 506	 -6	 363	 absent	 properTrial	 right	 1	 15.204
linesB	 23	 99	 1	 506	 -6	 362	 absent	 properTrial	 right	 1	 12.954
linesB	 23	 100	 1	 512	 0	 351	 left	 properTrial	 right	 0	 12.336
linesB	 23	 101	 1	 515	 3	 350	 absent	 properTrial	 right	 1	 18.474
linesB	 23	 102	 1	 505	 7	 374	 right	 properTrial	 left	 0	 20.183
linesB	 23	 103	 1	 501	 11	 359	 absent	 properTrial	 left	 1	 26.068
linesB	 23	 104	 1	 528	 16	 366	 left	 properTrial	 right	 1	 1.918
linesB	 23	 105	 1	 525	 13	 378	 right	 properTrial	 right	 1	 0.956
linesB	 23	 106	 1	 517	 -5	 375	 absent	 properTrial	 left	 1	 25.934
linesB	 23	 107	 1	 509	 3	 369	 left	 properTrial	 left	 1	 0.915
linesB	 23	 108	 1	 504	 8	 365	 right	 properTrial	 left	 0	 11.528
linesB	 23	 109	 1	 502	 -10	 352	 absent	 properTrial	 right	 1	 19.041
linesB	 23	 110	 1	 512	 0	 354	 absent	 properTrial	 right	 1	 13.321
linesB	 23	 111	 1	 507	 -5	 355	 right	 properTrial	 right	 1	 0.897
linesB	 23	 112	 1	 514	 -2	 351	 absent	 properTrial	 left	 1	 15.867
linesB	 24	 17	 1	 504	 -8	 399	 absent	 properTrial	 right	 0	 1.497
linesB	 24	 18	 1	 510	 2	 405	 absent	 properTrial	 left	 1	 5.260
linesB	 24	 19	 1	 494	 -18	 394	 absent	 properTrial	 right	 1	 8.999
linesB	 24	 20	 1	 486	 -26	 372	 absent	 properTrial	 right	 1	 8.656
linesB	 24	 21	 1	 497	 -15	 382	 absent	 properTrial	 right	 1	 10.320
linesB	 24	 22	 1	 490	 -22	 377	 left	 properTrial	 right	 0	 9.866
linesB	 24	 23	 1	 479	 33	 403	 left	 properTrial	 left	 1	 1.785
linesB	 24	 24	 1	 495	 -17	 380	 absent	 properTrial	 right	 1	 13.788
linesB	 24	 25	 1	 395	 117	 288	 right	 properTrial	 left	 0	 10.375
linesB	 24	 26	 1	 489	 23	 413	 absent	 properTrial	 left	 1	 8.888
linesB	 24	 27	 1	 516	 4	 406	 left	 properTrial	 right	 0	 8.764
linesB	 24	 28	 1	 510	 -2	 426	 absent	 properTrial	 right	 1	 9.850
linesB	 24	 29	 1	 506	 -6	 383	 absent	 properTrial	 right	 1	 14.709
linesB	 24	 30	 1	 466	 -46	 314	 right	 properTrial	 right	 1	 1.108
linesB	 24	 31	 1	 503	 -9	 374	 absent	 properTrial	 right	 1	 15.268
linesB	 24	 32	 1	 355	 157	 291	 left	 properTrial	 left	 1	 0.891
linesB	 24	 33	 1	 499	 -13	 340	 absent	 properTrial	 right	 1	 10.271
linesB	 24	 34	 1	 486	 -26	 362	 left	 properTrial	 right	 0	 10.288
linesB	 24	 35	 1	 484	 28	 363	 right	 properTrial	 left	 0	 14.649
linesB	 24	 36	 1	 510	 -2	 380	 left	 properTrial	 right	 0	 8.686
linesB	 24	 37	 1	 491	 21	 404	 absent	 properTrial	 left	 0	 7.155
linesB	 24	 38	 1	 499	 13	 393	 left	 properTrial	 left	 1	 0.942
linesB	 24	 39	 1	 514	 2	 370	 right	 properTrial	 right	 1	 1.303
linesB	 24	 40	 1	 512	 0	 367	 left	 properTrial	 left	 1	 1.027
linesB	 24	 41	 1	 488	 24	 343	 right	 properTrial	 left	 1	 8.208
linesB	 24	 42	 1	 501	 11	 334	 absent	 properTrial	 left	 1	 8.686
linesB	 24	 43	 1	 488	 24	 343	 absent	 properTrial	 left	 1	 10.586
linesB	 24	 44	 1	 482	 30	 345	 right	 properTrial	 left	 0	 8.943
linesB	 24	 45	 1	 501	 -11	 343	 absent	 properTrial	 right	 1	 10.617
linesB	 24	 46	 1	 504	 8	 340	 absent	 properTrial	 left	 1	 12.190
linesB	 24	 47	 1	 490	 -22	 338	 absent	 properTrial	 right	 1	 12.629
linesB	 24	 48	 1	 492	 -20	 335	 absent	 properTrial	 right	 1	 10.769
linesB	 24	 49	 1	 486	 26	 332	 absent	 properTrial	 left	 0	 12.589
linesB	 24	 50	 1	 491	 21	 342	 absent	 properTrial	 left	 1	 8.371
linesB	 24	 51	 1	 495	 17	 386	 absent	 properTrial	 left	 0	 5.052
linesB	 24	 52	 1	 484	 28	 369	 right	 properTrial	 left	 1	 6.538
linesB	 24	 53	 1	 487	 25	 358	 right	 properTrial	 left	 0	 8.439
linesB	 24	 54	 1	 489	 -23	 346	 absent	 properTrial	 right	 1	 12.384
linesB	 24	 55	 1	 468	 44	 287	 left	 properTrial	 left	 1	 0.667
linesB	 24	 56	 1	 501	 11	 343	 absent	 properTrial	 left	 1	 6.978
linesB	 24	 57	 1	 491	 -21	 356	 right	 properTrial	 right	 1	 0.922
linesB	 24	 58	 1	 494	 18	 368	 left	 properTrial	 left	 1	 0.737
linesB	 24	 59	 1	 500	 -12	 361	 right	 properTrial	 right	 1	 1.079
linesB	 24	 60	 1	 494	 -18	 371	 absent	 properTrial	 right	 1	 8.461
linesB	 24	 61	 1	 486	 26	 345	 right	 properTrial	 left	 0	 6.555
linesB	 24	 62	 1	 469	 -43	 356	 right	 properTrial	 right	 1	 0.799
linesB	 24	 63	 1	 498	 -14	 354	 left	 properTrial	 right	 0	 10.611
linesB	 24	 64	 1	 488	 24	 353	 left	 properTrial	 left	 1	 0.963
linesB	 24	 65	 1	 487	 -25	 338	 absent	 properTrial	 right	 1	 5.991
linesB	 24	 66	 1	 493	 19	 336	 left	 properTrial	 left	 1	 0.654
linesB	 24	 67	 1	 485	 27	 346	 right	 properTrial	 left	 1	 3.936
linesB	 24	 68	 1	 494	 -18	 336	 absent	 properTrial	 right	 1	 10.294
linesB	 24	 69	 1	 485	 27	 353	 left	 properTrial	 left	 1	 0.686
linesB	 24	 70	 1	 499	 -13	 339	 right	 properTrial	 right	 1	 2.016
linesB	 24	 71	 1	 492	 -20	 344	 absent	 properTrial	 right	 1	 4.680
linesB	 24	 72	 1	 480	 32	 336	 absent	 properTrial	 left	 1	 9.008
linesB	 24	 73	 1	 496	 -16	 355	 absent	 properTrial	 right	 1	 7.192
linesB	 24	 74	 1	 482	 30	 354	 absent	 properTrial	 left	 1	 5.227
linesB	 24	 75	 1	 500	 -12	 386	 absent	 properTrial	 right	 1	 10.342
linesB	 24	 76	 1	 494	 18	 349	 absent	 properTrial	 left	 1	 9.851
linesB	 24	 77	 1	 491	 -21	 343	 absent	 properTrial	 right	 1	 9.320
linesB	 24	 78	 1	 482	 30	 346	 left	 properTrial	 left	 1	 0.721
linesB	 24	 79	 1	 483	 -29	 352	 right	 properTrial	 right	 1	 0.955
linesB	 24	 80	 1	 495	 -17	 339	 left	 properTrial	 right	 1	 1.684
linesB	 24	 81	 1	 492	 -20	 354	 left	 properTrial	 right	 1	 5.022
linesB	 24	 82	 1	 483	 29	 335	 absent	 properTrial	 left	 1	 4.594
linesB	 24	 83	 1	 480	 -32	 335	 absent	 properTrial	 right	 1	 5.117
linesB	 24	 84	 1	 490	 -22	 374	 left	 properTrial	 right	 0	 4.537
linesB	 24	 85	 1	 485	 27	 348	 left	 properTrial	 left	 1	 0.639
linesB	 24	 86	 1	 482	 -30	 347	 left	 properTrial	 right	 1	 2.655
linesB	 24	 87	 1	 502	 -10	 360	 absent	 properTrial	 right	 1	 7.274
linesB	 24	 88	 1	 501	 11	 366	 right	 properTrial	 left	 0	 9.983
linesB	 24	 89	 1	 496	 16	 378	 absent	 properTrial	 left	 1	 4.146
linesB	 24	 90	 1	 488	 -24	 392	 right	 properTrial	 right	 1	 0.848
linesB	 24	 91	 1	 497	 -15	 382	 absent	 properTrial	 right	 1	 12.139
linesB	 24	 92	 1	 494	 -18	 367	 left	 properTrial	 right	 0	 4.736
linesB	 24	 93	 1	 475	 -37	 382	 absent	 properTrial	 right	 1	 5.982
linesB	 24	 94	 1	 484	 28	 362	 left	 properTrial	 left	 1	 0.738
linesB	 24	 95	 1	 474	 38	 347	 absent	 properTrial	 left	 1	 9.221
linesB	 24	 96	 1	 469	 -43	 355	 right	 properTrial	 right	 1	 0.800
linesB	 24	 97	 1	 485	 27	 376	 absent	 properTrial	 left	 1	 6.363
linesB	 24	 98	 1	 481	 31	 371	 absent	 properTrial	 left	 1	 6.305
linesB	 24	 99	 1	 468	 44	 356	 absent	 properTrial	 left	 1	 6.915
linesB	 24	 100	 1	 467	 45	 355	 left	 properTrial	 left	 1	 0.964
linesB	 24	 101	 1	 482	 30	 355	 left	 properTrial	 left	 1	 0.642
linesB	 24	 102	 1	 465	 -47	 360	 absent	 properTrial	 right	 1	 5.692
linesB	 24	 103	 1	 478	 34	 361	 right	 properTrial	 left	 0	 6.371
linesB	 24	 104	 1	 477	 35	 380	 left	 properTrial	 left	 1	 0.891
linesB	 24	 105	 1	 479	 33	 364	 absent	 properTrial	 left	 1	 9.555
linesB	 24	 106	 1	 471	 41	 382	 absent	 properTrial	 left	 1	 5.296
linesB	 24	 107	 1	 505	 7	 361	 right	 properTrial	 left	 0	 6.428
linesB	 24	 108	 1	 481	 31	 382	 absent	 properTrial	 left	 1	 3.699
linesB	 24	 109	 1	 483	 29	 368	 right	 properTrial	 left	 1	 2.410
linesB	 24	 110	 1	 467	 -45	 363	 absent	 properTrial	 right	 0	 6.300
linesB	 24	 111	 1	 471	 -41	 369	 left	 properTrial	 right	 0	 7.632
linesB	 24	 112	 1	 478	 -34	 359	 left	 properTrial	 right	 0	 8.087
linesB	 25	 17	 1	 503	 -9	 414	 absent	 properTrial	 right	 0	 5.923
linesB	 25	 18	 1	 496	 16	 394	 absent	 properTrial	 left	 0	 3.811
linesB	 25	 19	 1	 507	 -5	 390	 absent	 properTrial	 right	 0	 17.727
linesB	 25	 20	 1	 503	 -9	 401	 absent	 properTrial	 right	 1	 8.412
linesB	 25	 21	 1	 501	 -11	 403	 absent	 properTrial	 right	 1	 6.845
linesB	 25	 22	 1	 513	 1	 402	 left	 properTrial	 right	 0	 9.036
linesB	 25	 23	 1	 510	 2	 393	 left	 properTrial	 left	 1	 1.725
linesB	 25	 24	 1	 497	 -15	 399	 absent	 properTrial	 right	 1	 17.171
linesB	 25	 25	 1	 507	 5	 405	 right	 properTrial	 left	 0	 15.569
linesB	 25	 26	 1	 517	 -5	 378	 absent	 properTrial	 left	 0	 5.534
linesB	 25	 27	 1	 516	 4	 379	 left	 properTrial	 right	 1	 2.044
linesB	 25	 28	 1	 506	 -6	 370	 absent	 properTrial	 right	 1	 10.480
linesB	 25	 29	 1	 518	 6	 382	 absent	 properTrial	 right	 1	 10.369
linesB	 25	 30	 1	 518	 6	 372	 right	 properTrial	 right	 1	 1.461
linesB	 25	 31	 1	 513	 1	 364	 absent	 properTrial	 right	 1	 11.847
linesB	 25	 32	 1	 520	 -8	 371	 left	 properTrial	 left	 1	 1.274
linesB	 25	 33	 1	 516	 4	 367	 absent	 properTrial	 right	 1	 8.868
linesB	 25	 34	 1	 518	 6	 376	 left	 properTrial	 right	 0	 14.437
linesB	 25	 35	 1	 514	 -2	 381	 right	 properTrial	 left	 1	 3.776
linesB	 25	 36	 1	 506	 -6	 375	 left	 properTrial	 right	 1	 14.457
linesB	 25	 37	 1	 516	 -4	 371	 absent	 properTrial	 left	 1	 10.610
linesB	 25	 38	 1	 516	 -4	 367	 left	 properTrial	 left	 1	 1.145
linesB	 25	 39	 1	 517	 5	 372	 right	 properTrial	 right	 1	 3.026
linesB	 25	 40	 1	 517	 -5	 371	 left	 properTrial	 left	 1	 0.930
linesB	 25	 41	 1	 503	 9	 391	 right	 properTrial	 left	 1	 1.327
linesB	 25	 42	 1	 503	 9	 389	 absent	 properTrial	 left	 1	 12.220
linesB	 25	 43	 1	 511	 1	 377	 absent	 properTrial	 left	 1	 4.772
linesB	 25	 44	 1	 506	 6	 384	 right	 properTrial	 left	 0	 5.787
linesB	 25	 45	 1	 513	 1	 392	 absent	 properTrial	 right	 1	 6.383
linesB	 25	 46	 1	 517	 -5	 390	 absent	 properTrial	 left	 1	 8.407
linesB	 25	 47	 1	 508	 -4	 399	 absent	 properTrial	 right	 1	 9.467
linesB	 25	 48	 1	 506	 -6	 377	 absent	 properTrial	 right	 1	 4.938
linesB	 25	 49	 1	 508	 4	 375	 absent	 properTrial	 left	 1	 5.035
linesB	 25	 50	 1	 511	 1	 387	 absent	 properTrial	 left	 1	 6.723
linesB	 25	 51	 1	 509	 3	 382	 absent	 properTrial	 left	 1	 5.329
linesB	 25	 52	 1	 503	 9	 381	 right	 properTrial	 left	 1	 3.434
linesB	 25	 53	 1	 522	 -10	 371	 right	 properTrial	 left	 0	 10.809
linesB	 25	 54	 1	 511	 -1	 381	 absent	 properTrial	 right	 1	 8.723
linesB	 25	 55	 1	 514	 -2	 390	 left	 properTrial	 left	 1	 3.607
linesB	 25	 56	 1	 517	 -5	 373	 absent	 properTrial	 left	 1	 6.882
linesB	 25	 57	 1	 520	 8	 376	 right	 properTrial	 right	 1	 0.930
linesB	 25	 58	 1	 510	 2	 372	 left	 properTrial	 left	 1	 0.652
linesB	 25	 59	 1	 517	 5	 379	 right	 properTrial	 right	 1	 0.937
linesB	 25	 60	 1	 514	 2	 367	 absent	 properTrial	 right	 1	 8.391
linesB	 25	 61	 1	 513	 -1	 373	 right	 properTrial	 left	 0	 7.003
linesB	 25	 62	 1	 508	 -4	 379	 right	 properTrial	 right	 1	 0.713
linesB	 25	 63	 1	 520	 8	 360	 left	 properTrial	 right	 0	 7.707
linesB	 25	 64	 1	 501	 11	 380	 left	 properTrial	 left	 1	 1.071
linesB	 25	 65	 1	 503	 -9	 382	 absent	 properTrial	 right	 1	 8.045
linesB	 25	 66	 1	 504	 8	 381	 left	 properTrial	 left	 1	 1.185
linesB	 25	 67	 1	 506	 6	 374	 right	 properTrial	 left	 0	 7.000
linesB	 25	 68	 1	 507	 -5	 384	 absent	 properTrial	 right	 1	 6.626
linesB	 25	 69	 1	 513	 -1	 369	 left	 properTrial	 left	 1	 0.800
linesB	 25	 70	 1	 519	 7	 380	 right	 properTrial	 right	 1	 2.099
linesB	 25	 71	 1	 517	 5	 369	 absent	 properTrial	 right	 1	 7.580
linesB	 25	 72	 1	 515	 -3	 385	 absent	 properTrial	 left	 1	 3.057
linesB	 25	 73	 1	 518	 6	 372	 absent	 properTrial	 right	 1	 8.425
linesB	 25	 74	 1	 531	 -19	 374	 absent	 properTrial	 left	 0	 2.641
linesB	 25	 75	 1	 510	 -2	 372	 absent	 properTrial	 right	 1	 8.298
linesB	 25	 76	 1	 496	 16	 396	 absent	 properTrial	 left	 1	 6.239
linesB	 25	 77	 1	 530	 18	 380	 absent	 properTrial	 right	 1	 6.030
linesB	 25	 78	 1	 507	 5	 372	 left	 properTrial	 left	 1	 0.936
linesB	 25	 79	 1	 508	 -4	 377	 right	 properTrial	 right	 1	 1.118
linesB	 25	 80	 1	 510	 -2	 383	 left	 properTrial	 right	 1	 8.998
linesB	 25	 81	 1	 505	 -7	 373	 left	 properTrial	 right	 1	 3.825
linesB	 25	 82	 1	 510	 2	 381	 absent	 properTrial	 left	 1	 5.901
linesB	 25	 83	 1	 516	 4	 377	 absent	 properTrial	 right	 1	 5.290
linesB	 25	 84	 1	 509	 -3	 372	 left	 properTrial	 right	 0	 4.207
linesB	 25	 85	 1	 511	 1	 369	 left	 properTrial	 left	 1	 1.201
linesB	 25	 86	 1	 498	 -14	 383	 left	 properTrial	 right	 0	 4.956
linesB	 25	 87	 1	 510	 -2	 380	 absent	 properTrial	 right	 1	 9.275
linesB	 25	 88	 1	 511	 1	 382	 right	 properTrial	 left	 0	 9.591
linesB	 25	 89	 1	 508	 4	 398	 absent	 properTrial	 left	 1	 4.770
linesB	 25	 90	 1	 507	 -5	 392	 right	 properTrial	 right	 1	 0.951
linesB	 25	 91	 1	 500	 -12	 376	 absent	 properTrial	 right	 1	 7.637
linesB	 25	 92	 1	 508	 -4	 386	 left	 properTrial	 right	 0	 7.061
linesB	 25	 93	 1	 500	 -12	 383	 absent	 properTrial	 right	 1	 9.607
linesB	 25	 94	 1	 509	 3	 394	 left	 properTrial	 left	 1	 0.944
linesB	 25	 95	 1	 501	 11	 392	 absent	 properTrial	 left	 1	 7.338
linesB	 25	 96	 1	 512	 0	 358	 right	 properTrial	 right	 1	 0.809
linesB	 25	 97	 1	 516	 -4	 370	 absent	 properTrial	 left	 1	 6.948
linesB	 25	 98	 1	 509	 3	 368	 absent	 properTrial	 left	 1	 11.882
linesB	 25	 99	 1	 502	 10	 378	 absent	 properTrial	 left	 1	 5.841
linesB	 25	 100	 1	 510	 2	 369	 left	 properTrial	 left	 1	 1.019
linesB	 25	 101	 1	 505	 7	 365	 left	 properTrial	 left	 1	 0.759
linesB	 25	 102	 1	 498	 -14	 361	 absent	 properTrial	 right	 1	 7.647
linesB	 25	 103	 1	 506	 6	 370	 right	 properTrial	 left	 1	 2.836
linesB	 25	 104	 1	 497	 15	 375	 left	 properTrial	 left	 1	 0.953
linesB	 25	 105	 1	 495	 17	 385	 absent	 properTrial	 left	 1	 5.767
linesB	 25	 106	 1	 507	 5	 373	 absent	 properTrial	 left	 1	 6.439
linesB	 25	 107	 1	 502	 10	 373	 right	 properTrial	 left	 0	 4.292
linesB	 25	 108	 1	 502	 10	 373	 absent	 properTrial	 left	 1	 4.048
linesB	 25	 109	 1	 497	 15	 369	 right	 properTrial	 left	 0	 7.417
linesB	 25	 110	 1	 505	 -7	 368	 absent	 properTrial	 right	 1	 6.986
linesB	 25	 111	 1	 501	 -11	 383	 left	 properTrial	 right	 0	 8.958
linesB	 25	 112	 1	 507	 -5	 368	 left	 properTrial	 right	 0	 5.891
linesB	 31	 17	 1	 466	 46	 344	 left	 properTrial	 left	 1	 1.077
linesB	 31	 18	 1	 472	 40	 371	 right	 properTrial	 left	 1	 6.161
linesB	 31	 19	 1	 501	 -11	 392	 right	 properTrial	 right	 1	 1.232
linesB	 31	 20	 1	 489	 -23	 373	 left	 properTrial	 right	 1	 19.806
linesB	 31	 21	 1	 484	 28	 407	 left	 properTrial	 left	 1	 1.005
linesB	 31	 22	 1	 484	 -28	 387	 absent	 properTrial	 right	 1	 27.655
linesB	 31	 23	 1	 495	 -17	 411	 absent	 properTrial	 right	 1	 19.485
linesB	 31	 24	 1	 486	 -26	 380	 right	 properTrial	 right	 1	 0.912
