condition	 subNum	 trialNo	 fixNo	 xFix	 xFixFlip	 yFix	 targSide	 trialType	 easySide	 accuracy	 RT
linesB	 71	 17	 1	 528	 -16	 368	 left	 properTrial	 left	 1	 2.125
linesB	 71	 18	 1	 532	 -20	 364	 right	 properTrial	 left	 0	 5.272
linesB	 71	 19	 1	 513	 1	 401	 right	 properTrial	 right	 1	 1.368
linesB	 71	 20	 1	 525	 13	 381	 left	 properTrial	 right	 0	 7.229
linesB	 71	 21	 1	 513	 -1	 400	 left	 properTrial	 left	 1	 0.916
linesB	 71	 22	 1	 518	 6	 380	 absent	 properTrial	 right	 0	 4.508
linesB	 71	 23	 1	 519	 7	 386	 absent	 properTrial	 right	 1	 6.432
linesB	 71	 24	 1	 532	 20	 367	 right	 properTrial	 right	 1	 1.280
linesB	 71	 25	 1	 528	 -16	 374	 right	 properTrial	 left	 0	 5.644
linesB	 71	 26	 1	 527	 -15	 397	 absent	 properTrial	 left	 0	 5.922
linesB	 71	 27	 1	 522	 -10	 395	 absent	 properTrial	 left	 1	 9.595
linesB	 71	 28	 1	 529	 -17	 389	 absent	 properTrial	 left	 1	 6.556
linesB	 71	 29	 1	 526	 -14	 380	 absent	 properTrial	 left	 1	 7.637
linesB	 71	 30	 1	 526	 14	 380	 absent	 properTrial	 right	 1	 8.473
linesB	 71	 31	 1	 522	 10	 394	 right	 properTrial	 right	 1	 9.187
linesB	 71	 32	 1	 524	 -12	 394	 absent	 properTrial	 left	 1	 6.535
linesB	 71	 33	 1	 525	 13	 385	 left	 properTrial	 right	 1	 5.273
linesB	 71	 34	 1	 523	 11	 394	 right	 properTrial	 right	 1	 1.138
linesB	 71	 35	 1	 516	 -4	 389	 absent	 properTrial	 left	 1	 9.302
linesB	 71	 36	 1	 532	 -20	 386	 absent	 properTrial	 left	 1	 10.139
linesB	 71	 37	 1	 530	 -18	 388	 absent	 properTrial	 left	 1	 7.006
linesB	 71	 38	 1	 533	 21	 377	 absent	 properTrial	 right	 0	 5.543
linesB	 71	 39	 1	 524	 12	 394	 left	 properTrial	 right	 1	 8.175
linesB	 71	 40	 1	 527	 15	 390	 left	 properTrial	 right	 1	 1.621
linesB	 71	 41	 1	 530	 -18	 377	 absent	 properTrial	 left	 1	 9.887
linesB	 71	 42	 1	 519	 -7	 375	 absent	 properTrial	 left	 0	 8.179
linesB	 71	 43	 1	 520	 8	 397	 absent	 properTrial	 right	 0	 3.609
linesB	 71	 44	 1	 521	 9	 388	 absent	 properTrial	 right	 1	 12.209
linesB	 71	 45	 1	 527	 -15	 388	 left	 properTrial	 left	 1	 3.764
linesB	 71	 46	 1	 524	 12	 380	 right	 properTrial	 right	 1	 1.789
linesB	 71	 47	 1	 528	 -16	 375	 right	 properTrial	 left	 0	 10.363
linesB	 71	 48	 1	 512	 0	 386	 absent	 properTrial	 right	 1	 12.921
linesB	 71	 49	 1	 533	 21	 384	 right	 properTrial	 right	 1	 0.824
linesB	 71	 50	 1	 542	 -30	 384	 absent	 properTrial	 left	 1	 11.731
linesB	 71	 51	 1	 542	 30	 377	 absent	 properTrial	 right	 0	 9.363
linesB	 71	 52	 1	 533	 21	 383	 right	 properTrial	 right	 1	 1.032
linesB	 71	 53	 1	 533	 21	 381	 absent	 properTrial	 right	 1	 11.631
linesB	 71	 54	 1	 532	 20	 389	 left	 properTrial	 right	 1	 6.450
linesB	 71	 55	 1	 539	 -27	 391	 absent	 properTrial	 left	 1	 11.823
linesB	 71	 56	 1	 516	 4	 386	 absent	 properTrial	 right	 1	 13.718
linesB	 71	 57	 1	 531	 19	 386	 left	 properTrial	 right	 0	 11.662
linesB	 71	 58	 1	 528	 16	 376	 right	 properTrial	 right	 1	 0.942
linesB	 71	 59	 1	 533	 21	 375	 left	 properTrial	 right	 0	 17.044
linesB	 71	 60	 1	 528	 16	 402	 left	 properTrial	 right	 0	 15.711
linesB	 71	 61	 1	 522	 -10	 411	 absent	 properTrial	 left	 0	 14.186
linesB	 71	 62	 1	 522	 10	 403	 right	 properTrial	 right	 1	 0.899
linesB	 71	 63	 1	 526	 -14	 402	 right	 properTrial	 left	 1	 8.365
linesB	 71	 64	 1	 516	 -4	 396	 absent	 properTrial	 left	 1	 11.467
linesB	 71	 65	 1	 529	 -17	 374	 absent	 properTrial	 left	 0	 8.940
linesB	 71	 66	 1	 525	 -13	 386	 left	 properTrial	 left	 1	 0.772
linesB	 71	 67	 1	 537	 25	 377	 absent	 properTrial	 right	 1	 13.273
linesB	 71	 68	 1	 533	 21	 374	 left	 properTrial	 right	 1	 10.120
linesB	 71	 69	 1	 532	 20	 380	 absent	 properTrial	 right	 1	 15.743
linesB	 71	 70	 1	 542	 -30	 377	 right	 properTrial	 left	 0	 10.370
linesB	 71	 71	 1	 527	 15	 390	 left	 properTrial	 right	 0	 14.811
linesB	 71	 72	 1	 537	 -25	 394	 absent	 properTrial	 left	 1	 17.940
linesB	 71	 73	 1	 534	 22	 384	 right	 properTrial	 right	 1	 1.049
linesB	 71	 74	 1	 537	 -25	 394	 right	 properTrial	 left	 1	 9.192
linesB	 71	 75	 1	 531	 19	 387	 absent	 properTrial	 right	 1	 18.823
linesB	 71	 76	 1	 541	 29	 376	 right	 properTrial	 right	 1	 0.874
linesB	 71	 77	 1	 537	 25	 384	 absent	 properTrial	 right	 1	 12.378
linesB	 71	 78	 1	 546	 34	 342	 left	 properTrial	 right	 0	 16.874
linesB	 71	 79	 1	 518	 6	 392	 absent	 properTrial	 right	 1	 15.248
linesB	 71	 80	 1	 544	 32	 380	 absent	 properTrial	 right	 1	 17.029
linesB	 71	 81	 1	 507	 5	 357	 absent	 properTrial	 left	 1	 14.694
linesB	 71	 82	 1	 522	 -10	 377	 absent	 properTrial	 left	 1	 15.348
linesB	 71	 83	 1	 527	 15	 387	 right	 properTrial	 right	 1	 1.314
linesB	 71	 84	 1	 532	 -20	 380	 left	 properTrial	 left	 1	 1.095
linesB	 71	 85	 1	 543	 -31	 366	 absent	 properTrial	 left	 1	 16.606
linesB	 71	 86	 1	 533	 21	 380	 right	 properTrial	 right	 1	 0.789
linesB	 71	 87	 1	 539	 -27	 385	 absent	 properTrial	 left	 1	 12.659
linesB	 71	 88	 1	 522	 10	 374	 left	 properTrial	 right	 1	 7.127
linesB	 71	 89	 1	 539	 -27	 370	 left	 properTrial	 left	 1	 0.715
linesB	 71	 90	 1	 537	 -25	 354	 left	 properTrial	 left	 1	 0.915
linesB	 71	 91	 1	 525	 -13	 375	 absent	 properTrial	 left	 1	 12.796
linesB	 71	 92	 1	 534	 -22	 379	 left	 properTrial	 left	 1	 1.353
linesB	 71	 93	 1	 534	 -22	 385	 absent	 properTrial	 left	 1	 13.925
linesB	 71	 94	 1	 532	 20	 373	 left	 properTrial	 right	 0	 8.945
linesB	 71	 95	 1	 526	 -14	 409	 right	 properTrial	 left	 0	 12.890
linesB	 71	 96	 1	 527	 15	 395	 absent	 properTrial	 right	 0	 7.936
linesB	 71	 97	 1	 526	 -14	 386	 absent	 properTrial	 left	 1	 13.608
linesB	 71	 98	 1	 529	 17	 370	 absent	 properTrial	 right	 1	 14.247
linesB	 71	 99	 1	 533	 21	 376	 absent	 properTrial	 right	 1	 7.956
linesB	 71	 100	 1	 532	 20	 360	 left	 properTrial	 right	 0	 10.350
linesB	 71	 101	 1	 532	 20	 398	 absent	 properTrial	 right	 1	 17.229
linesB	 71	 102	 1	 496	 16	 387	 right	 properTrial	 left	 0	 13.452
linesB	 71	 103	 1	 520	 -8	 407	 absent	 properTrial	 left	 0	 13.662
linesB	 71	 104	 1	 531	 19	 381	 left	 properTrial	 right	 1	 8.714
linesB	 71	 105	 1	 530	 18	 385	 right	 properTrial	 right	 1	 0.879
linesB	 71	 106	 1	 528	 -16	 363	 absent	 properTrial	 left	 1	 13.162
linesB	 71	 107	 1	 528	 -16	 387	 left	 properTrial	 left	 1	 0.964
linesB	 71	 108	 1	 535	 -23	 398	 right	 properTrial	 left	 0	 17.497
linesB	 71	 109	 1	 524	 12	 395	 absent	 properTrial	 right	 1	 14.403
linesB	 71	 110	 1	 528	 16	 360	 absent	 properTrial	 right	 1	 14.915
linesB	 71	 111	 1	 525	 13	 384	 right	 properTrial	 right	 1	 0.773
linesB	 71	 112	 1	 555	 -43	 374	 absent	 properTrial	 left	 1	 16.163
linesB	 73	 17	 1	 487	 -25	 376	 absent	 properTrial	 right	 1	 21.906
linesB	 73	 18	 1	 492	 -20	 371	 absent	 properTrial	 right	 0	 11.545
linesB	 73	 19	 1	 475	 -37	 401	 right	 properTrial	 right	 1	 2.138
linesB	 73	 20	 1	 486	 -26	 388	 left	 properTrial	 right	 1	 2.991
linesB	 73	 21	 1	 482	 -30	 384	 left	 properTrial	 right	 1	 14.395
linesB	 73	 22	 1	 489	 -23	 380	 absent	 properTrial	 right	 0	 5.340
linesB	 73	 23	 1	 0	 0	 0	 left	 properTrial	 left	 1	 1.465
linesB	 73	 24	 1	 493	 19	 383	 right	 properTrial	 left	 1	 9.490
linesB	 73	 25	 1	 487	 -25	 396	 absent	 properTrial	 right	 1	 8.551
linesB	 73	 26	 1	 485	 27	 383	 right	 properTrial	 left	 0	 10.618
linesB	 73	 27	 1	 476	 -36	 396	 absent	 properTrial	 right	 0	 2.755
linesB	 73	 28	 1	 486	 -26	 399	 right	 properTrial	 right	 1	 1.960
linesB	 73	 29	 1	 475	 37	 379	 absent	 properTrial	 left	 0	 11.521
linesB	 73	 30	 1	 477	 -35	 392	 right	 properTrial	 right	 1	 4.814
linesB	 73	 31	 1	 471	 41	 386	 absent	 properTrial	 left	 1	 13.305
linesB	 73	 32	 1	 478	 34	 376	 absent	 properTrial	 left	 1	 9.248
linesB	 73	 33	 1	 480	 -32	 387	 absent	 properTrial	 right	 1	 10.315
linesB	 73	 34	 1	 475	 37	 404	 left	 properTrial	 left	 1	 1.995
linesB	 73	 35	 1	 478	 34	 406	 right	 properTrial	 left	 0	 7.861
linesB	 73	 36	 1	 474	 -38	 392	 left	 properTrial	 right	 0	 13.487
linesB	 73	 37	 1	 480	 32	 398	 absent	 properTrial	 left	 1	 12.136
linesB	 73	 38	 1	 481	 -31	 393	 absent	 properTrial	 right	 1	 12.756
linesB	 73	 39	 1	 486	 -26	 400	 absent	 properTrial	 right	 1	 7.636
linesB	 73	 40	 1	 485	 -27	 372	 right	 properTrial	 right	 1	 1.095
linesB	 73	 41	 1	 504	 8	 384	 absent	 properTrial	 left	 1	 10.689
linesB	 73	 42	 1	 495	 -17	 371	 left	 properTrial	 right	 0	 7.840
linesB	 73	 43	 1	 484	 28	 377	 absent	 properTrial	 left	 0	 7.325
linesB	 73	 44	 1	 477	 35	 383	 absent	 properTrial	 left	 1	 18.918
linesB	 73	 45	 1	 488	 -24	 367	 left	 properTrial	 right	 1	 9.627
linesB	 73	 46	 1	 509	 3	 395	 absent	 properTrial	 left	 1	 9.625
linesB	 73	 47	 1	 491	 21	 390	 left	 properTrial	 left	 1	 1.053
linesB	 73	 48	 1	 488	 24	 381	 right	 properTrial	 left	 0	 11.910
linesB	 73	 49	 1	 479	 -33	 401	 absent	 properTrial	 right	 1	 15.099
linesB	 73	 50	 1	 506	 6	 374	 right	 properTrial	 left	 1	 5.871
linesB	 73	 51	 1	 497	 -15	 385	 absent	 properTrial	 right	 0	 2.961
linesB	 73	 52	 1	 489	 23	 393	 absent	 properTrial	 left	 1	 14.558
linesB	 73	 53	 1	 494	 -18	 376	 absent	 properTrial	 right	 1	 13.533
linesB	 73	 54	 1	 493	 -19	 387	 right	 properTrial	 right	 1	 0.902
linesB	 73	 55	 1	 497	 -15	 368	 right	 properTrial	 right	 1	 2.039
linesB	 73	 56	 1	 479	 33	 384	 right	 properTrial	 left	 0	 10.432
linesB	 73	 57	 1	 484	 28	 392	 left	 properTrial	 left	 1	 1.138
linesB	 73	 58	 1	 484	 -28	 375	 absent	 properTrial	 right	 1	 12.218
linesB	 73	 59	 1	 503	 9	 379	 absent	 properTrial	 left	 1	 13.328
linesB	 73	 60	 1	 475	 37	 400	 absent	 properTrial	 left	 0	 6.338
linesB	 73	 61	 1	 481	 -31	 407	 right	 properTrial	 right	 1	 1.052
linesB	 73	 62	 1	 476	 36	 396	 left	 properTrial	 left	 1	 1.155
linesB	 73	 63	 1	 476	 36	 382	 right	 properTrial	 left	 1	 3.913
linesB	 73	 64	 1	 472	 -40	 383	 absent	 properTrial	 right	 0	 6.337
linesB	 73	 65	 1	 493	 -19	 364	 left	 properTrial	 right	 0	 10.902
linesB	 73	 66	 1	 500	 12	 392	 absent	 properTrial	 left	 0	 4.770
linesB	 73	 67	 1	 490	 22	 394	 left	 properTrial	 left	 1	 1.170
linesB	 73	 68	 1	 493	 -19	 367	 absent	 properTrial	 right	 1	 17.700
linesB	 73	 69	 1	 481	 31	 391	 absent	 properTrial	 left	 1	 15.928
linesB	 73	 70	 1	 0	 0	 0	 absent	 properTrial	 right	 1	 18.241
linesB	 73	 71	 1	 495	 -17	 402	 absent	 properTrial	 right	 1	 14.927
linesB	 73	 72	 1	 468	 -44	 402	 left	 properTrial	 right	 1	 4.702
linesB	 73	 73	 1	 482	 30	 407	 absent	 properTrial	 left	 1	 15.182
linesB	 73	 74	 1	 494	 -18	 388	 absent	 properTrial	 right	 1	 10.937
linesB	 73	 75	 1	 483	 29	 361	 left	 properTrial	 left	 1	 1.580
linesB	 73	 76	 1	 497	 -15	 377	 right	 properTrial	 right	 1	 1.010
linesB	 73	 77	 1	 472	 40	 401	 right	 properTrial	 left	 0	 18.561
linesB	 73	 78	 1	 475	 37	 401	 right	 properTrial	 left	 0	 17.522
linesB	 73	 79	 1	 472	 40	 413	 absent	 properTrial	 left	 1	 21.160
linesB	 73	 80	 1	 469	 43	 415	 left	 properTrial	 left	 1	 1.056
linesB	 73	 81	 1	 483	 -29	 393	 left	 properTrial	 right	 0	 15.492
linesB	 73	 82	 1	 466	 -46	 401	 left	 properTrial	 right	 1	 22.243
linesB	 73	 83	 1	 479	 33	 392	 absent	 properTrial	 left	 1	 20.773
linesB	 73	 84	 1	 483	 -29	 387	 right	 properTrial	 right	 1	 1.001
linesB	 73	 85	 1	 477	 35	 407	 left	 properTrial	 left	 1	 1.705
linesB	 73	 86	 1	 473	 39	 395	 absent	 properTrial	 left	 1	 22.197
linesB	 73	 87	 1	 477	 35	 399	 absent	 properTrial	 left	 1	 13.941
linesB	 73	 88	 1	 473	 39	 394	 absent	 properTrial	 left	 1	 9.159
linesB	 73	 89	 1	 487	 25	 378	 absent	 properTrial	 left	 1	 10.718
linesB	 73	 90	 1	 496	 16	 382	 right	 properTrial	 left	 1	 3.214
linesB	 73	 91	 1	 489	 -23	 381	 right	 properTrial	 right	 1	 1.064
linesB	 73	 92	 1	 479	 -33	 382	 left	 properTrial	 right	 0	 7.010
linesB	 73	 93	 1	 480	 -32	 396	 left	 properTrial	 right	 1	 4.588
linesB	 73	 94	 1	 490	 22	 396	 absent	 properTrial	 left	 1	 6.232
linesB	 73	 95	 1	 479	 33	 406	 absent	 properTrial	 left	 1	 10.226
linesB	 73	 96	 1	 486	 -26	 387	 absent	 properTrial	 right	 1	 8.436
linesB	 73	 97	 1	 481	 -31	 415	 right	 properTrial	 right	 1	 1.161
linesB	 73	 98	 1	 485	 27	 391	 right	 properTrial	 left	 0	 7.179
linesB	 73	 99	 1	 470	 42	 409	 left	 properTrial	 left	 1	 0.811
linesB	 73	 100	 1	 465	 47	 395	 left	 properTrial	 left	 1	 0.938
linesB	 73	 101	 1	 482	 -30	 393	 left	 properTrial	 right	 0	 10.631
linesB	 73	 102	 1	 485	 27	 397	 absent	 properTrial	 left	 0	 15.626
linesB	 73	 103	 1	 482	 30	 413	 right	 properTrial	 left	 1	 9.812
linesB	 73	 104	 1	 483	 -29	 404	 absent	 properTrial	 right	 0	 10.208
linesB	 73	 105	 1	 478	 34	 414	 left	 properTrial	 left	 1	 0.978
linesB	 73	 106	 1	 483	 29	 400	 absent	 properTrial	 left	 1	 12.073
linesB	 73	 107	 1	 484	 -28	 408	 absent	 properTrial	 right	 0	 2.936
linesB	 73	 108	 1	 482	 -30	 400	 absent	 properTrial	 right	 1	 13.271
linesB	 73	 109	 1	 486	 -26	 387	 right	 properTrial	 right	 1	 1.034
linesB	 73	 110	 1	 482	 -30	 408	 absent	 properTrial	 right	 1	 15.037
linesB	 73	 111	 1	 494	 -18	 397	 absent	 properTrial	 right	 1	 10.378
linesB	 73	 112	 1	 473	 39	 421	 absent	 properTrial	 left	 1	 6.960
linesB	 75	 17	 1	 513	 1	 384	 absent	 properTrial	 right	 1	 17.005
linesB	 75	 18	 1	 513	 1	 374	 absent	 properTrial	 right	 1	 19.479
linesB	 75	 19	 1	 515	 3	 375	 right	 properTrial	 right	 1	 1.413
linesB	 75	 20	 1	 525	 13	 371	 left	 properTrial	 right	 0	 24.159
linesB	 75	 21	 1	 518	 6	 388	 left	 properTrial	 right	 1	 27.774
linesB	 75	 22	 1	 510	 -2	 381	 absent	 properTrial	 right	 1	 29.226
linesB	 75	 23	 1	 520	 -8	 370	 left	 properTrial	 left	 1	 2.875
linesB	 75	 24	 1	 514	 -2	 382	 right	 properTrial	 left	 1	 23.489
linesB	 75	 25	 1	 507	 -5	 377	 absent	 properTrial	 right	 1	 23.013
linesB	 75	 26	 1	 510	 2	 370	 right	 properTrial	 left	 0	 18.224
linesB	 75	 27	 1	 520	 8	 391	 absent	 properTrial	 right	 1	 26.973
linesB	 75	 28	 1	 517	 5	 388	 right	 properTrial	 right	 1	 1.015
linesB	 75	 29	 1	 512	 0	 386	 absent	 properTrial	 left	 1	 20.361
linesB	 75	 30	 1	 516	 4	 368	 right	 properTrial	 right	 1	 1.530
linesB	 75	 31	 1	 510	 2	 387	 absent	 properTrial	 left	 1	 22.685
linesB	 75	 32	 1	 522	 -10	 363	 absent	 properTrial	 left	 0	 18.530
linesB	 75	 33	 1	 514	 2	 388	 absent	 properTrial	 right	 1	 23.891
linesB	 75	 34	 1	 519	 -7	 371	 left	 properTrial	 left	 1	 1.391
linesB	 75	 35	 1	 523	 -11	 372	 right	 properTrial	 left	 0	 23.456
linesB	 75	 36	 1	 520	 8	 383	 left	 properTrial	 right	 1	 19.393
linesB	 75	 37	 1	 522	 -10	 358	 absent	 properTrial	 left	 1	 24.638
linesB	 75	 38	 1	 525	 13	 368	 absent	 properTrial	 right	 1	 25.983
linesB	 75	 39	 1	 523	 11	 381	 absent	 properTrial	 right	 1	 24.925
linesB	 75	 40	 1	 520	 8	 374	 right	 properTrial	 right	 1	 0.855
linesB	 75	 41	 1	 509	 3	 382	 absent	 properTrial	 left	 1	 23.205
linesB	 75	 42	 1	 511	 -1	 382	 left	 properTrial	 right	 1	 25.004
linesB	 75	 43	 1	 517	 -5	 385	 absent	 properTrial	 left	 1	 24.880
linesB	 75	 44	 1	 515	 -3	 366	 absent	 properTrial	 left	 1	 15.619
linesB	 75	 45	 1	 673	 161	 345	 left	 properTrial	 right	 1	 13.871
linesB	 75	 46	 1	 517	 -5	 379	 absent	 properTrial	 left	 1	 12.448
linesB	 75	 47	 1	 508	 4	 380	 left	 properTrial	 left	 1	 1.099
linesB	 75	 48	 1	 549	 -37	 333	 right	 properTrial	 left	 0	 9.815
linesB	 75	 49	 1	 515	 3	 394	 absent	 properTrial	 right	 1	 14.390
linesB	 75	 50	 1	 509	 3	 392	 right	 properTrial	 left	 0	 11.755
linesB	 75	 51	 1	 515	 3	 396	 absent	 properTrial	 right	 1	 16.619
linesB	 75	 52	 1	 514	 -2	 390	 absent	 properTrial	 left	 1	 15.426
linesB	 75	 53	 1	 512	 0	 389	 absent	 properTrial	 right	 0	 10.746
linesB	 75	 54	 1	 517	 5	 388	 right	 properTrial	 right	 1	 0.810
linesB	 75	 55	 1	 516	 4	 380	 right	 properTrial	 right	 1	 0.946
linesB	 75	 56	 1	 497	 15	 368	 right	 properTrial	 left	 1	 4.059
linesB	 75	 57	 1	 510	 2	 342	 left	 properTrial	 left	 1	 0.831
linesB	 75	 58	 1	 506	 -6	 402	 absent	 properTrial	 right	 1	 10.319
linesB	 75	 59	 1	 514	 -2	 389	 absent	 properTrial	 left	 1	 10.102
linesB	 75	 60	 1	 509	 3	 381	 absent	 properTrial	 left	 1	 11.593
linesB	 75	 61	 1	 525	 13	 354	 right	 properTrial	 right	 1	 0.645
linesB	 75	 62	 1	 508	 4	 341	 left	 properTrial	 left	 1	 0.737
linesB	 75	 63	 1	 514	 -2	 395	 right	 properTrial	 left	 0	 8.996
linesB	 75	 64	 1	 507	 -5	 374	 absent	 properTrial	 right	 1	 8.510
linesB	 75	 65	 1	 510	 -2	 379	 left	 properTrial	 right	 0	 9.105
linesB	 75	 66	 1	 513	 -1	 386	 absent	 properTrial	 left	 1	 11.024
linesB	 75	 67	 1	 512	 0	 373	 left	 properTrial	 left	 1	 0.769
linesB	 75	 68	 1	 513	 1	 366	 absent	 properTrial	 right	 0	 8.802
linesB	 75	 69	 1	 525	 -13	 393	 absent	 properTrial	 left	 0	 12.228
linesB	 75	 70	 1	 510	 -2	 374	 absent	 properTrial	 right	 1	 15.731
linesB	 75	 71	 1	 516	 4	 386	 absent	 properTrial	 right	 0	 7.759
linesB	 75	 72	 1	 513	 1	 386	 left	 properTrial	 right	 0	 17.262
linesB	 75	 73	 1	 505	 7	 385	 absent	 properTrial	 left	 1	 19.235
linesB	 75	 74	 1	 514	 2	 381	 absent	 properTrial	 right	 1	 12.596
linesB	 75	 75	 1	 516	 -4	 367	 left	 properTrial	 left	 1	 0.740
linesB	 75	 76	 1	 505	 -7	 264	 right	 properTrial	 right	 1	 1.285
linesB	 75	 77	 1	 477	 35	 290	 right	 properTrial	 left	 1	 12.978
linesB	 75	 78	 1	 522	 -10	 339	 right	 properTrial	 left	 1	 3.747
linesB	 75	 79	 1	 504	 8	 364	 absent	 properTrial	 left	 1	 7.081
linesB	 75	 80	 1	 514	 -2	 385	 left	 properTrial	 left	 1	 0.770
linesB	 75	 81	 1	 521	 9	 373	 left	 properTrial	 right	 0	 8.011
linesB	 75	 82	 1	 513	 1	 385	 left	 properTrial	 right	 1	 6.180
linesB	 75	 83	 1	 518	 -6	 382	 absent	 properTrial	 left	 1	 9.080
linesB	 75	 84	 1	 525	 13	 375	 right	 properTrial	 right	 1	 0.561
linesB	 75	 85	 1	 508	 4	 376	 left	 properTrial	 left	 1	 0.568
linesB	 75	 86	 1	 512	 0	 392	 absent	 properTrial	 left	 0	 4.466
linesB	 75	 87	 1	 518	 -6	 391	 absent	 properTrial	 left	 1	 7.325
linesB	 75	 88	 1	 515	 -3	 384	 absent	 properTrial	 left	 1	 5.322
linesB	 75	 89	 1	 501	 11	 383	 absent	 properTrial	 left	 1	 6.242
linesB	 75	 90	 1	 520	 -8	 380	 right	 properTrial	 left	 0	 4.704
linesB	 75	 91	 1	 0	 0	 0	 right	 properTrial	 right	 1	 0.809
linesB	 75	 92	 1	 516	 4	 365	 left	 properTrial	 right	 1	 2.481
linesB	 75	 93	 1	 492	 -20	 309	 left	 properTrial	 right	 0	 7.094
linesB	 75	 94	 1	 512	 0	 388	 absent	 properTrial	 left	 1	 7.685
linesB	 75	 95	 1	 511	 1	 397	 absent	 properTrial	 left	 1	 7.773
linesB	 75	 96	 1	 504	 -8	 333	 absent	 properTrial	 right	 1	 6.599
linesB	 75	 97	 1	 515	 3	 380	 right	 properTrial	 right	 1	 0.676
linesB	 75	 98	 1	 514	 -2	 389	 right	 properTrial	 left	 1	 6.233
linesB	 75	 99	 1	 512	 0	 388	 left	 properTrial	 left	 1	 0.770
linesB	 75	 100	 1	 509	 3	 324	 left	 properTrial	 left	 1	 0.693
linesB	 75	 101	 1	 515	 3	 384	 left	 properTrial	 right	 1	 5.031
linesB	 75	 102	 1	 511	 1	 392	 absent	 properTrial	 left	 1	 6.818
linesB	 75	 103	 1	 517	 -5	 383	 right	 properTrial	 left	 1	 3.232
linesB	 75	 104	 1	 506	 -6	 372	 absent	 properTrial	 right	 1	 10.239
linesB	 75	 105	 1	 509	 3	 388	 left	 properTrial	 left	 1	 0.722
linesB	 75	 106	 1	 507	 5	 380	 absent	 properTrial	 left	 0	 7.065
linesB	 75	 107	 1	 515	 3	 397	 absent	 properTrial	 right	 0	 10.663
linesB	 75	 108	 1	 517	 5	 389	 absent	 properTrial	 right	 1	 8.868
linesB	 75	 109	 1	 514	 2	 387	 right	 properTrial	 right	 1	 0.638
linesB	 75	 110	 1	 495	 -17	 372	 absent	 properTrial	 right	 1	 7.996
linesB	 75	 111	 1	 520	 8	 386	 absent	 properTrial	 right	 1	 6.901
linesB	 75	 112	 1	 462	 50	 319	 absent	 properTrial	 left	 1	 9.747
linesB	 78	 17	 1	 528	 -16	 349	 left	 properTrial	 left	 1	 1.657
linesB	 78	 18	 1	 532	 20	 374	 absent	 properTrial	 right	 1	 8.288
linesB	 78	 19	 1	 538	 -26	 365	 right	 properTrial	 left	 0	 7.700
linesB	 78	 20	 1	 532	 20	 386	 right	 properTrial	 right	 1	 6.833
linesB	 78	 21	 1	 525	 13	 369	 right	 properTrial	 right	 1	 1.268
linesB	 78	 22	 1	 528	 16	 369	 absent	 properTrial	 right	 1	 11.020
linesB	 78	 23	 1	 528	 -16	 351	 absent	 properTrial	 left	 1	 7.888
linesB	 78	 24	 1	 530	 18	 350	 absent	 properTrial	 right	 1	 9.314
linesB	 78	 25	 1	 539	 27	 349	 absent	 properTrial	 right	 1	 10.671
linesB	 78	 26	 1	 526	 -14	 342	 right	 properTrial	 left	 0	 7.058
linesB	 78	 27	 1	 529	 -17	 377	 right	 properTrial	 left	 1	 8.202
linesB	 78	 28	 1	 0	 0	 0	 absent	 properTrial	 left	 0	 9.962
linesB	 78	 29	 1	 519	 -7	 369	 left	 properTrial	 left	 1	 1.019
linesB	 78	 30	 1	 521	 -9	 369	 absent	 properTrial	 left	 1	 9.193
linesB	 78	 31	 1	 542	 30	 352	 absent	 properTrial	 right	 1	 7.792
linesB	 78	 32	 1	 551	 39	 356	 right	 properTrial	 right	 0	 8.086
linesB	 78	 33	 1	 531	 -19	 394	 absent	 properTrial	 left	 1	 8.993
linesB	 78	 34	 1	 523	 11	 352	 left	 properTrial	 right	 1	 8.766
linesB	 78	 35	 1	 526	 -14	 379	 absent	 properTrial	 left	 1	 8.377
linesB	 78	 36	 1	 530	 18	 339	 right	 properTrial	 right	 1	 1.086
linesB	 78	 37	 1	 541	 29	 349	 absent	 properTrial	 right	 1	 10.775
linesB	 78	 38	 1	 537	 -25	 347	 right	 properTrial	 left	 0	 9.272
linesB	 78	 39	 1	 524	 12	 406	 absent	 properTrial	 right	 1	 7.874
linesB	 78	 40	 1	 534	 22	 374	 left	 properTrial	 right	 1	 7.709
linesB	 78	 41	 1	 520	 8	 390	 left	 properTrial	 right	 1	 6.416
linesB	 78	 42	 1	 527	 15	 387	 left	 properTrial	 right	 0	 11.093
linesB	 78	 43	 1	 513	 1	 403	 absent	 properTrial	 right	 1	 10.488
linesB	 78	 44	 1	 519	 -7	 378	 right	 properTrial	 left	 1	 4.004
linesB	 78	 45	 1	 542	 -30	 363	 left	 properTrial	 left	 1	 1.029
linesB	 78	 46	 1	 537	 -25	 379	 right	 properTrial	 left	 1	 11.214
linesB	 78	 47	 1	 530	 18	 390	 left	 properTrial	 right	 0	 8.243
linesB	 78	 48	 1	 525	 -13	 395	 left	 properTrial	 left	 1	 0.951
linesB	 78	 49	 1	 518	 -6	 383	 right	 properTrial	 left	 0	 10.404
linesB	 78	 50	 1	 507	 5	 415	 absent	 properTrial	 left	 0	 5.501
linesB	 78	 51	 1	 504	 8	 414	 absent	 properTrial	 left	 1	 18.840
linesB	 78	 52	 1	 516	 -4	 387	 absent	 properTrial	 left	 1	 8.769
linesB	 78	 53	 1	 512	 0	 392	 absent	 properTrial	 right	 1	 11.675
linesB	 78	 54	 1	 518	 -6	 415	 absent	 properTrial	 left	 0	 8.074
linesB	 78	 55	 1	 509	 3	 436	 absent	 properTrial	 left	 1	 24.808
linesB	 78	 56	 1	 523	 -11	 417	 left	 properTrial	 left	 1	 0.887
linesB	 78	 57	 1	 513	 -1	 404	 absent	 properTrial	 left	 1	 8.638
linesB	 78	 58	 1	 517	 5	 405	 absent	 properTrial	 right	 1	 10.105
linesB	 78	 59	 1	 527	 15	 394	 absent	 properTrial	 right	 1	 14.957
linesB	 78	 60	 1	 531	 19	 413	 right	 properTrial	 right	 1	 0.884
linesB	 78	 61	 1	 518	 6	 402	 absent	 properTrial	 right	 1	 14.404
linesB	 78	 62	 1	 527	 15	 399	 absent	 properTrial	 right	 0	 12.087
linesB	 78	 63	 1	 509	 3	 422	 left	 properTrial	 left	 1	 2.624
linesB	 78	 64	 1	 524	 12	 385	 right	 properTrial	 right	 1	 1.289
linesB	 78	 65	 1	 523	 11	 374	 right	 properTrial	 right	 1	 0.903
linesB	 78	 66	 1	 524	 -12	 351	 absent	 properTrial	 left	 1	 10.949
linesB	 78	 67	 1	 511	 -1	 367	 absent	 properTrial	 right	 1	 8.540
linesB	 78	 68	 1	 515	 3	 378	 absent	 properTrial	 right	 1	 8.444
linesB	 78	 69	 1	 506	 6	 368	 left	 properTrial	 left	 1	 1.042
linesB	 78	 70	 1	 525	 13	 369	 left	 properTrial	 right	 0	 11.212
linesB	 78	 71	 1	 495	 17	 410	 absent	 properTrial	 left	 1	 14.577
linesB	 78	 72	 1	 502	 10	 390	 left	 properTrial	 left	 0	 0.697
linesB	 78	 73	 1	 487	 -25	 391	 absent	 properTrial	 right	 1	 13.623
linesB	 78	 74	 1	 508	 -4	 398	 absent	 properTrial	 right	 1	 14.562
linesB	 78	 75	 1	 507	 5	 390	 right	 properTrial	 left	 1	 5.275
linesB	 78	 76	 1	 514	 -2	 372	 right	 properTrial	 left	 1	 1.732
linesB	 78	 77	 1	 517	 5	 382	 absent	 properTrial	 right	 1	 9.467
linesB	 78	 78	 1	 505	 -7	 383	 absent	 properTrial	 right	 1	 9.328
linesB	 78	 79	 1	 516	 4	 373	 left	 properTrial	 right	 1	 2.783
linesB	 78	 80	 1	 505	 7	 369	 right	 properTrial	 left	 0	 9.437
linesB	 78	 81	 1	 491	 -21	 402	 right	 properTrial	 right	 1	 0.818
linesB	 78	 82	 1	 498	 14	 377	 absent	 properTrial	 left	 1	 9.266
linesB	 78	 83	 1	 504	 -8	 399	 absent	 properTrial	 right	 1	 9.932
linesB	 78	 84	 1	 492	 20	 380	 left	 properTrial	 left	 1	 1.080
linesB	 78	 85	 1	 512	 0	 352	 absent	 properTrial	 right	 0	 3.960
linesB	 78	 86	 1	 491	 -21	 415	 right	 properTrial	 right	 1	 1.167
linesB	 78	 87	 1	 497	 15	 384	 absent	 properTrial	 left	 1	 8.572
linesB	 78	 88	 1	 507	 -5	 398	 left	 properTrial	 right	 1	 7.260
linesB	 78	 89	 1	 497	 15	 390	 right	 properTrial	 left	 0	 5.234
linesB	 78	 90	 1	 481	 -31	 376	 absent	 properTrial	 right	 1	 8.438
linesB	 78	 91	 1	 491	 -21	 368	 left	 properTrial	 right	 0	 10.083
linesB	 78	 92	 1	 485	 -27	 391	 left	 properTrial	 right	 1	 2.662
linesB	 78	 93	 1	 495	 -17	 374	 absent	 properTrial	 right	 1	 12.043
linesB	 78	 94	 1	 501	 11	 375	 right	 properTrial	 left	 1	 6.996
linesB	 78	 95	 1	 500	 12	 379	 left	 properTrial	 left	 1	 0.803
linesB	 78	 96	 1	 492	 20	 373	 left	 properTrial	 left	 1	 1.222
linesB	 78	 97	 1	 501	 11	 354	 absent	 properTrial	 left	 1	 13.536
linesB	 78	 98	 1	 496	 16	 393	 absent	 properTrial	 left	 1	 4.992
linesB	 78	 99	 1	 492	 20	 392	 left	 properTrial	 left	 1	 0.582
linesB	 78	 100	 1	 0	 0	 0	 absent	 properTrial	 left	 1	 12.217
linesB	 78	 101	 1	 503	 9	 392	 absent	 properTrial	 left	 1	 10.244
linesB	 78	 102	 1	 495	 17	 383	 right	 properTrial	 left	 1	 4.073
linesB	 78	 103	 1	 514	 2	 368	 right	 properTrial	 right	 1	 0.741
linesB	 78	 104	 1	 504	 8	 361	 absent	 properTrial	 left	 1	 6.533
linesB	 78	 105	 1	 505	 7	 386	 absent	 properTrial	 left	 1	 9.490
linesB	 78	 106	 1	 504	 -8	 366	 absent	 properTrial	 right	 1	 6.935
linesB	 78	 107	 1	 502	 10	 362	 left	 properTrial	 left	 1	 0.770
linesB	 78	 108	 1	 503	 9	 349	 absent	 properTrial	 left	 1	 9.743
linesB	 78	 109	 1	 513	 1	 356	 left	 properTrial	 right	 0	 7.941
linesB	 78	 110	 1	 484	 28	 393	 left	 properTrial	 left	 1	 0.882
linesB	 78	 111	 1	 494	 18	 367	 absent	 properTrial	 left	 1	 15.119
linesB	 78	 112	 1	 512	 0	 370	 absent	 properTrial	 right	 1	 9.300
