site,person,trial,targ_side_rel,accuracy,rt
Aberdeen,4,7,easy,1,4.146
Aberdeen,4,8,hard,0,5.884
Aberdeen,4,9,easy,1,1.102
Aberdeen,4,10,hard,0,7.049
Aberdeen,4,11,easy,1,1.128
Aberdeen,4,12,absent,1,10.119
Aberdeen,4,13,absent,1,10.864
Aberdeen,4,14,easy,1,2.47
Aberdeen,4,15,hard,0,9.671
Aberdeen,4,16,absent,1,11.429
Aberdeen,4,17,absent,1,12.896
Aberdeen,4,18,absent,0,7.078
Aberdeen,4,19,absent,0,7.158
Aberdeen,4,20,absent,0,6.243
Aberdeen,4,21,easy,1,0.883
Aberdeen,4,22,absent,0,13.051
Aberdeen,4,23,hard,0,13.698
Aberdeen,4,24,easy,1,0.811
Aberdeen,4,25,absent,0,7.677
Aberdeen,4,26,absent,0,2.291
Aberdeen,4,27,absent,0,18.854
Aberdeen,4,28,absent,1,15.741
Aberdeen,4,29,hard,0,13.695
Aberdeen,4,30,hard,1,4.837
Aberdeen,4,31,absent,0,10.64
Aberdeen,4,32,absent,1,12.363
Aberdeen,4,33,absent,1,10.581
Aberdeen,4,34,absent,0,9.302
Aberdeen,4,35,easy,1,0.859
Aberdeen,4,36,easy,1,0.751
Aberdeen,4,37,hard,1,8.479
Aberdeen,4,38,absent,1,19.322
Aberdeen,4,39,easy,1,1.013
Aberdeen,4,40,absent,0,7.343
Aberdeen,4,41,absent,1,9.933
Aberdeen,4,42,easy,1,0.83
Aberdeen,4,43,absent,0,10.435
Aberdeen,4,44,hard,1,14.773
Aberdeen,4,45,absent,0,2.584
Aberdeen,4,46,absent,1,14.52
Aberdeen,4,47,hard,0,8.922
Aberdeen,4,48,easy,1,0.746
Aberdeen,4,49,hard,0,10.394
Aberdeen,4,50,hard,1,3.232
Aberdeen,4,51,absent,0,15.072
Aberdeen,4,52,easy,1,0.723
Aberdeen,4,53,hard,0,13.834
Aberdeen,4,54,absent,1,14.169
Aberdeen,4,55,absent,1,15.492
Aberdeen,4,56,easy,1,1.104
Aberdeen,4,57,absent,0,6.742
Aberdeen,4,58,hard,0,14.764
Aberdeen,4,59,absent,1,15.537
Aberdeen,4,60,hard,0,10.395
Aberdeen,4,61,hard,0,11.691
Aberdeen,4,62,absent,1,17.172
Aberdeen,4,63,easy,1,0.957
Aberdeen,4,64,hard,1,18.76
Aberdeen,4,65,absent,0,9.16
Aberdeen,4,66,easy,1,1.565
Aberdeen,4,67,absent,0,3.848
Aberdeen,4,68,hard,1,1.271
Aberdeen,4,69,absent,0,4.712
Aberdeen,4,70,absent,0,6.335
Aberdeen,4,72,absent,0,12.423
Aberdeen,4,73,easy,1,1.023
Aberdeen,4,74,easy,1,0.783
Aberdeen,4,75,absent,1,18.057
Aberdeen,4,76,easy,1,1.385
Aberdeen,4,77,absent,0,4.073
Aberdeen,4,78,hard,0,14.686
Aberdeen,4,79,easy,1,0.841
Aberdeen,4,80,easy,1,0.795
Aberdeen,4,81,absent,1,10.402
Aberdeen,4,82,easy,1,0.707
Aberdeen,4,83,absent,1,9.96
Aberdeen,4,84,hard,1,2.082
Aberdeen,4,85,hard,1,2.205
Aberdeen,4,86,absent,1,4.675
Aberdeen,4,87,absent,0,3.816
Aberdeen,4,88,absent,1,4.441
Aberdeen,4,89,absent,0,3.091
Aberdeen,4,90,hard,1,2.23
Aberdeen,4,91,absent,1,8.366
Aberdeen,4,92,hard,0,9.616
Aberdeen,4,93,absent,1,11.937
Aberdeen,4,94,hard,0,3.252
Aberdeen,4,95,easy,1,1.061
Aberdeen,4,96,absent,0,10.141
Aberdeen,4,97,easy,1,1.169
Aberdeen,4,98,hard,1,5.751
Aberdeen,4,99,absent,0,3.329
Aberdeen,4,100,absent,1,9.758
Aberdeen,4,101,easy,1,0.826
Aberdeen,4,102,absent,1,7.974
Aberdeen,5,7,easy,1,3.209
Aberdeen,5,8,hard,1,1.614
Aberdeen,5,9,easy,0,3.67
Aberdeen,5,10,hard,0,5.374
Aberdeen,5,11,easy,0,6.799
Aberdeen,5,12,absent,0,7.158
Aberdeen,5,13,absent,1,10.132
Aberdeen,5,14,easy,0,8.361
Aberdeen,5,15,hard,1,1.77
Aberdeen,5,16,absent,1,5.311
Aberdeen,5,17,absent,0,1.422
Aberdeen,5,18,absent,0,4.988
Aberdeen,5,19,absent,1,8.39
Aberdeen,5,20,absent,1,8.558
Aberdeen,5,21,easy,1,4.853
Aberdeen,5,22,absent,0,3.04
Aberdeen,5,23,hard,1,8.689
Aberdeen,5,24,easy,1,6.188
Aberdeen,5,25,absent,0,3.536
Aberdeen,5,26,absent,1,6.857
Aberdeen,5,27,absent,1,6.911
Aberdeen,5,28,absent,1,7.195
Aberdeen,5,29,hard,0,11.094
Aberdeen,5,30,hard,1,3.552
Aberdeen,5,31,absent,1,6.064
Aberdeen,5,32,absent,0,5.201
Aberdeen,5,33,absent,1,3.15
Aberdeen,5,34,absent,1,2.889
Aberdeen,5,35,easy,0,4.451
Aberdeen,5,36,easy,1,7.084
Aberdeen,5,37,hard,0,4.541
Aberdeen,5,38,absent,0,1.544
Aberdeen,5,39,easy,1,2.973
Aberdeen,5,40,absent,1,4.681
Aberdeen,5,41,absent,1,6.392
Aberdeen,5,42,easy,0,2.467
Aberdeen,5,43,absent,0,5.339
Aberdeen,5,44,hard,1,6.325
Aberdeen,5,45,absent,1,5.651
Aberdeen,5,46,absent,1,6.708
Aberdeen,5,47,hard,0,13.016
Aberdeen,5,48,easy,0,7.987
Aberdeen,5,49,hard,0,6.988
Aberdeen,5,50,hard,0,5.405
Aberdeen,5,51,absent,1,5.393
Aberdeen,5,52,easy,0,9.015
Aberdeen,5,53,hard,0,5.432
Aberdeen,5,54,absent,1,7.886
Aberdeen,5,55,absent,0,9.68
Aberdeen,5,56,easy,1,1.262
Aberdeen,5,57,absent,1,5.068
Aberdeen,5,58,hard,0,5.102
Aberdeen,5,59,absent,1,14.355
Aberdeen,5,60,hard,1,5.07
Aberdeen,5,61,hard,1,1.263
Aberdeen,5,62,absent,1,2.206
Aberdeen,5,63,easy,0,2.882
Aberdeen,5,64,hard,1,4.091
Aberdeen,5,65,absent,1,12.427
Aberdeen,5,66,easy,0,5.708
Aberdeen,5,67,absent,1,7.448
Aberdeen,5,68,hard,0,3.365
Aberdeen,5,69,absent,1,2.446
Aberdeen,5,70,absent,1,6.188
Aberdeen,5,71,absent,1,2.027
Aberdeen,5,72,absent,0,3.714
Aberdeen,5,73,easy,1,2.179
Aberdeen,5,74,easy,1,2.579
Aberdeen,5,75,absent,0,4.724
Aberdeen,5,76,easy,1,2.981
Aberdeen,5,77,absent,1,15.94
Aberdeen,5,78,hard,0,6.731
Aberdeen,5,79,easy,1,1.837
Aberdeen,5,80,easy,1,2.544
Aberdeen,5,81,absent,0,3.924
Aberdeen,5,82,easy,1,4.166
Aberdeen,5,83,absent,1,2.925
Aberdeen,5,84,hard,0,4.306
Aberdeen,5,85,hard,0,4.185
Aberdeen,5,86,absent,1,5.027
Aberdeen,5,87,absent,1,9.008
Aberdeen,5,88,absent,1,5.618
Aberdeen,5,89,absent,1,8.158
Aberdeen,5,90,hard,1,1.543
Aberdeen,5,91,absent,1,4.281
Aberdeen,5,92,hard,0,3.236
Aberdeen,5,93,absent,1,5.602
Aberdeen,5,94,hard,0,5.795
Aberdeen,5,95,easy,1,4.111
Aberdeen,5,96,absent,1,8.043
Aberdeen,5,97,easy,1,3.036
Aberdeen,5,98,hard,0,6.048
Aberdeen,5,99,absent,0,7.69
Aberdeen,5,100,absent,1,6.178
Aberdeen,5,101,easy,1,2.418
Aberdeen,5,102,absent,1,6.967
Aberdeen,6,7,easy,1,1.213
Aberdeen,6,8,hard,1,1.145
Aberdeen,6,9,easy,1,1.019
Aberdeen,6,10,hard,0,4.59
Aberdeen,6,11,easy,1,1.426
Aberdeen,6,12,absent,1,16.368
Aberdeen,6,13,absent,1,14.377
Aberdeen,6,14,easy,1,1.75
Aberdeen,6,15,hard,0,11.722
Aberdeen,6,16,absent,1,16.048
Aberdeen,6,17,absent,1,13.12
Aberdeen,6,18,absent,1,11.617
Aberdeen,6,19,absent,0,15.131
Aberdeen,6,20,absent,0,16.437
Aberdeen,6,21,easy,1,1.172
Aberdeen,6,22,absent,1,22.804
Aberdeen,6,23,hard,1,1.805
Aberdeen,6,24,easy,1,1.674
Aberdeen,6,25,absent,0,15.359
Aberdeen,6,26,absent,1,18.522
Aberdeen,6,27,absent,0,3.303
Aberdeen,6,28,absent,0,6.692
Aberdeen,6,29,hard,1,10.726
Aberdeen,6,30,hard,1,9.606
Aberdeen,6,31,absent,1,20.882
Aberdeen,6,32,absent,1,24.693
Aberdeen,6,33,absent,0,13.261
Aberdeen,6,34,absent,1,25.348
Aberdeen,6,36,easy,1,0.996
Aberdeen,6,37,hard,1,7.417
Aberdeen,6,38,absent,1,23.41
Aberdeen,6,39,easy,1,1.124
Aberdeen,6,40,absent,1,16.152
Aberdeen,6,41,absent,1,12.753
Aberdeen,6,42,easy,1,1.405
Aberdeen,6,43,absent,1,16.361
Aberdeen,6,44,hard,0,11.027
Aberdeen,6,45,absent,1,16.731
Aberdeen,6,46,absent,1,14.656
Aberdeen,6,47,hard,1,7.743
Aberdeen,6,48,easy,1,0.876
Aberdeen,6,49,hard,1,1.455
Aberdeen,6,51,absent,1,12.823
Aberdeen,6,52,easy,1,0.905
Aberdeen,6,53,hard,0,13.403
Aberdeen,6,54,absent,1,12.475
Aberdeen,6,55,absent,1,8.698
Aberdeen,6,56,easy,1,1.154
Aberdeen,6,57,absent,0,2.812
Aberdeen,6,58,hard,0,12.748
Aberdeen,6,59,absent,1,18.891
Aberdeen,6,60,hard,1,4.661
Aberdeen,6,61,hard,1,5.627
Aberdeen,6,63,easy,1,1.733
Aberdeen,6,64,hard,1,1.03
Aberdeen,6,65,absent,0,4.035
Aberdeen,6,66,easy,1,1.09
Aberdeen,6,67,absent,1,14.841
Aberdeen,6,68,hard,0,8.373
Aberdeen,6,69,absent,1,18.74
Aberdeen,6,70,absent,1,11.444
Aberdeen,6,71,absent,1,9.227
Aberdeen,6,72,absent,0,8.222
Aberdeen,6,73,easy,1,0.819
Aberdeen,6,74,easy,1,0.709
Aberdeen,6,75,absent,1,3.532
Aberdeen,6,76,easy,1,0.805
Aberdeen,6,77,absent,1,3.239
Aberdeen,6,78,hard,0,6.024
Aberdeen,6,79,easy,1,0.866
Aberdeen,6,80,easy,1,0.6
Aberdeen,6,81,absent,1,9.137
Aberdeen,6,82,easy,1,0.748
Aberdeen,6,83,absent,1,7.535
Aberdeen,6,84,hard,0,5.674
Aberdeen,6,85,hard,0,7.243
Aberdeen,6,86,absent,1,10.588
Aberdeen,6,87,absent,1,9.44
Aberdeen,6,88,absent,1,10.974
Aberdeen,6,89,absent,1,5.529
Aberdeen,6,90,hard,0,12.893
Aberdeen,6,91,absent,1,15.784
Aberdeen,6,92,hard,0,9.169
Aberdeen,6,93,absent,1,10.132
Aberdeen,6,94,hard,1,2.006
Aberdeen,6,95,easy,1,0.858
Aberdeen,6,96,absent,0,9.018
Aberdeen,6,97,easy,1,0.696
Aberdeen,6,98,hard,1,0.781
Aberdeen,6,99,absent,1,5.679
Aberdeen,6,100,absent,1,8.786
Aberdeen,6,101,easy,1,0.731
Aberdeen,6,102,absent,1,7.917
Aberdeen,7,7,easy,1,1.586
Aberdeen,7,8,hard,1,3.377
Aberdeen,7,9,easy,1,0.793
Aberdeen,7,10,hard,0,5.442
Aberdeen,7,11,easy,1,0.712
Aberdeen,7,12,absent,1,5.483
Aberdeen,7,13,absent,1,6.474
Aberdeen,7,14,easy,1,1.396
Aberdeen,7,15,hard,1,4.366
Aberdeen,7,16,absent,1,7.446
Aberdeen,7,17,absent,0,4.551
Aberdeen,7,18,absent,0,2.68
Aberdeen,7,19,absent,0,2.401
Aberdeen,7,20,absent,0,2.705
Aberdeen,7,21,easy,1,0.76
Aberdeen,7,22,absent,0,2.497
Aberdeen,7,23,hard,0,3.457
Aberdeen,7,24,easy,1,1.34
Aberdeen,7,25,absent,0,3.402
Aberdeen,7,26,absent,0,6.763
Aberdeen,7,27,absent,1,3.743
Aberdeen,7,28,absent,0,2.673
Aberdeen,7,29,hard,0,6.484
Aberdeen,7,30,hard,1,1.786
Aberdeen,7,31,absent,1,5.478
Aberdeen,7,32,absent,0,4.792
Aberdeen,7,33,absent,1,8.278
Aberdeen,7,34,absent,0,10.679
Aberdeen,7,35,easy,1,0.88
Aberdeen,7,36,easy,1,0.746
Aberdeen,7,37,hard,1,1.747
Aberdeen,7,38,absent,1,5.422
Aberdeen,7,39,easy,1,0.873
Aberdeen,7,40,absent,1,4.214
Aberdeen,7,41,absent,1,3.184
Aberdeen,7,42,easy,1,0.865
Aberdeen,7,43,absent,0,4.379
Aberdeen,7,44,hard,1,3.543
Aberdeen,7,45,absent,0,4.724
Aberdeen,7,46,absent,1,1.856
Aberdeen,7,47,hard,0,4.136
Aberdeen,7,48,easy,1,0.649
Aberdeen,7,49,hard,1,2.887
Aberdeen,7,50,hard,0,1.846
Aberdeen,7,51,absent,1,1.242
Aberdeen,7,52,easy,1,0.722
Aberdeen,7,53,hard,1,2.18
Aberdeen,7,54,absent,0,1.91
Aberdeen,7,55,absent,0,1.772
Aberdeen,7,56,easy,1,0.758
Aberdeen,7,57,absent,0,2.215
Aberdeen,7,58,hard,1,1.469
Aberdeen,7,59,absent,1,2.04
Aberdeen,7,60,hard,1,1.608
Aberdeen,7,61,hard,1,1.807
Aberdeen,7,62,absent,0,2.179
Aberdeen,7,63,easy,1,0.966
Aberdeen,7,64,hard,1,1.554
Aberdeen,7,65,absent,0,2.268
Aberdeen,7,66,easy,1,0.669
Aberdeen,7,67,absent,0,1.507
Aberdeen,7,68,hard,1,1.975
Aberdeen,7,69,absent,0,1.312
Aberdeen,7,70,absent,0,1.824
Aberdeen,7,71,absent,0,1.364
Aberdeen,7,72,absent,1,1.397
Aberdeen,7,73,easy,1,0.813
Aberdeen,7,74,easy,1,0.565
Aberdeen,7,75,absent,0,2.141
Aberdeen,7,76,easy,1,0.709
Aberdeen,7,77,absent,0,1.372
Aberdeen,7,78,hard,1,1.209
Aberdeen,7,79,easy,1,0.572
Aberdeen,7,80,easy,1,0.7
Aberdeen,7,81,absent,0,3.13
Aberdeen,7,82,easy,1,0.674
Aberdeen,7,83,absent,0,0.825
Aberdeen,7,84,hard,1,2.488
Aberdeen,7,85,hard,1,1.959
Aberdeen,7,86,absent,0,3.967
Aberdeen,7,87,absent,0,21.479
Aberdeen,7,88,absent,0,3.035
Aberdeen,7,89,absent,1,1.832
Aberdeen,7,90,hard,0,1.579
Aberdeen,7,91,absent,0,1.549
Aberdeen,7,92,hard,1,1.71
Aberdeen,7,93,absent,1,3.767
Aberdeen,7,94,hard,1,2.709
Aberdeen,7,95,easy,1,0.874
Aberdeen,7,96,absent,1,5.034
Aberdeen,7,97,easy,1,0.82
Aberdeen,7,98,hard,1,2.964
Aberdeen,7,99,absent,1,5.774
Aberdeen,7,100,absent,0,2.033
Aberdeen,7,101,easy,1,0.647
Aberdeen,7,102,absent,0,2.211
Aberdeen,8,7,hard,0,23.485
Aberdeen,8,8,absent,1,11.591
Aberdeen,8,9,hard,1,5.562
Aberdeen,8,10,absent,1,20.494
Aberdeen,8,11,absent,0,22.732
Aberdeen,8,12,absent,0,24.375
Aberdeen,8,13,hard,1,9.899
Aberdeen,8,14,easy,1,11.785
Aberdeen,8,15,absent,1,19.754
Aberdeen,8,16,easy,0,28.984
Aberdeen,8,17,hard,1,14.245
Aberdeen,8,18,easy,1,11.219
Aberdeen,8,19,absent,0,12.393
Aberdeen,8,20,easy,0,24.578
Aberdeen,8,21,absent,0,5.451
Aberdeen,8,22,hard,1,6.515
Aberdeen,8,23,absent,0,6.865
Aberdeen,8,24,absent,1,17.326
Aberdeen,8,25,absent,1,21.223
Aberdeen,8,26,absent,1,14.689
Aberdeen,8,27,hard,1,7.008
Aberdeen,8,28,absent,0,6.607
Aberdeen,8,29,easy,1,3.307
Aberdeen,8,30,easy,1,3.992
Aberdeen,8,31,easy,1,4.353
Aberdeen,8,32,absent,1,6.315
Aberdeen,8,33,easy,1,2.347
Aberdeen,8,34,easy,1,4.062
Aberdeen,8,35,absent,0,4.818
Aberdeen,8,36,easy,0,11.532
Aberdeen,8,37,absent,0,2.517
Aberdeen,8,38,easy,1,2.114
Aberdeen,8,39,absent,0,2.516
Aberdeen,8,40,absent,0,3.253
Aberdeen,8,41,absent,0,6.356
Aberdeen,8,42,absent,0,4.292
Aberdeen,8,43,easy,0,1.501
Aberdeen,8,44,absent,0,7.352
Aberdeen,8,45,hard,1,6.859
Aberdeen,8,46,hard,1,9.246
Aberdeen,8,47,hard,1,11.926
Aberdeen,8,48,hard,1,9.325
Aberdeen,8,49,absent,0,13.168
Aberdeen,8,50,absent,0,6.026
Aberdeen,8,51,absent,0,4.565
Aberdeen,8,52,hard,0,14.707
Aberdeen,8,53,hard,1,2.619
Aberdeen,8,54,absent,0,5.699
Aberdeen,8,55,absent,0,4.917
Aberdeen,8,56,absent,0,2.405
Aberdeen,8,57,hard,1,4.724
Aberdeen,8,58,hard,1,3.168
Aberdeen,8,59,absent,1,12.639
Aberdeen,8,60,easy,0,10.422
Aberdeen,8,61,absent,0,4.217
Aberdeen,8,63,easy,0,15.022
Aberdeen,8,64,absent,0,10.991
Aberdeen,8,65,absent,1,14.064
Aberdeen,8,66,easy,0,14.151
Aberdeen,8,67,absent,1,5.867
Aberdeen,8,68,easy,0,11.954
Aberdeen,8,69,hard,0,14.391
Aberdeen,8,70,absent,0,2.544
Aberdeen,8,71,easy,0,15.523
Aberdeen,8,72,absent,0,9.282
Aberdeen,8,73,hard,1,7.713
Aberdeen,8,74,hard,1,5.277
Aberdeen,8,75,hard,1,2.352
Aberdeen,8,76,absent,1,12.589
Aberdeen,8,77,easy,1,15.885
Aberdeen,8,78,absent,1,16.503
Aberdeen,8,79,absent,1,18.355
Aberdeen,8,80,hard,1,6.872
Aberdeen,8,81,easy,1,10.725
Aberdeen,8,82,absent,0,9.673
Aberdeen,8,83,absent,1,18.859
Aberdeen,8,84,absent,1,22.43
Aberdeen,8,85,easy,1,5.303
Aberdeen,8,86,hard,1,11.107
Aberdeen,8,87,absent,1,20.095
Aberdeen,8,88,easy,1,2.656
Aberdeen,8,89,hard,1,7.031
Aberdeen,8,90,absent,1,20.792
Aberdeen,8,91,hard,1,8.094
Aberdeen,8,92,absent,1,15.164
Aberdeen,8,93,hard,0,11.936
Aberdeen,8,94,absent,0,15.229
Aberdeen,8,95,absent,1,16.017
Aberdeen,8,96,absent,1,13.886
Aberdeen,8,97,hard,0,10.675
Aberdeen,8,98,absent,0,9.451
Aberdeen,8,99,absent,1,7.175
Aberdeen,8,100,easy,1,1.577
Aberdeen,8,101,easy,1,1.359
Aberdeen,8,102,easy,1,1.877
Aberdeen,9,7,easy,1,1.45
Aberdeen,9,8,hard,1,2.907
Aberdeen,9,9,easy,1,1.388
Aberdeen,9,10,hard,0,14.159
Aberdeen,9,11,easy,1,28.374
Aberdeen,9,12,absent,1,31.359
Aberdeen,9,13,absent,1,37.771
Aberdeen,9,14,easy,1,4.32
Aberdeen,9,15,hard,0,21.997
Aberdeen,9,16,absent,1,27.096
Aberdeen,9,17,absent,1,23.938
Aberdeen,9,18,absent,1,17.754
Aberdeen,9,19,absent,1,16.355
Aberdeen,9,20,absent,1,21.425
Aberdeen,9,21,easy,1,4.041
Aberdeen,9,22,absent,1,18.556
Aberdeen,9,23,hard,0,14.15
Aberdeen,9,24,easy,1,2.503
Aberdeen,9,25,absent,1,20.432
Aberdeen,9,26,absent,1,14.481
Aberdeen,9,27,absent,1,13.656
Aberdeen,9,28,absent,1,10.872
Aberdeen,9,29,hard,1,13.958
Aberdeen,9,30,hard,0,11.278
Aberdeen,9,31,absent,1,14.7
Aberdeen,9,32,absent,1,17.759
Aberdeen,9,33,absent,1,14.005
Aberdeen,9,34,absent,1,15.509
Aberdeen,9,35,easy,1,1.207
Aberdeen,9,36,easy,1,0.933
Aberdeen,9,37,hard,1,5.892
Aberdeen,9,38,absent,1,14.768
Aberdeen,9,39,easy,1,1.081
Aberdeen,9,40,absent,1,12.446
Aberdeen,9,41,absent,1,18.482
Aberdeen,9,42,easy,1,1.194
Aberdeen,9,43,absent,1,12.187
Aberdeen,9,44,hard,0,9.313
Aberdeen,9,45,absent,1,19.458
Aberdeen,9,47,hard,0,14.59
Aberdeen,9,48,easy,1,0.806
Aberdeen,9,49,hard,1,21.098
Aberdeen,9,50,hard,0,19.641
Aberdeen,9,51,absent,1,20.925
Aberdeen,9,52,easy,1,1.025
Aberdeen,9,53,hard,0,21.868
Aberdeen,9,54,absent,1,20.999
Aberdeen,9,55,absent,1,11.531
Aberdeen,9,56,easy,1,1.711
Aberdeen,9,57,absent,1,12.511
Aberdeen,9,58,hard,0,17.811
Aberdeen,9,59,absent,1,21.767
Aberdeen,9,60,hard,0,20.854
Aberdeen,9,61,hard,0,27.778
Aberdeen,9,62,absent,1,29.134
Aberdeen,9,63,easy,1,0.905
Aberdeen,9,64,hard,1,7.573
Aberdeen,9,65,absent,1,20.135
Aberdeen,9,66,easy,1,0.868
Aberdeen,9,67,absent,1,20.541
Aberdeen,9,68,hard,1,2.411
Aberdeen,9,69,absent,1,13.947
Aberdeen,9,70,absent,1,10.845
Aberdeen,9,71,absent,1,14.013
Aberdeen,9,72,absent,1,14.243
Aberdeen,9,73,easy,1,0.903
Aberdeen,9,74,easy,1,0.792
Aberdeen,9,75,absent,1,20.74
Aberdeen,9,76,easy,1,1.083
Aberdeen,9,77,absent,1,10.302
Aberdeen,9,78,hard,0,8.257
Aberdeen,9,79,easy,1,0.84
Aberdeen,9,80,easy,1,0.724
Aberdeen,9,81,absent,1,15.096
Aberdeen,9,82,easy,1,0.715
Aberdeen,9,83,absent,1,8.609
Aberdeen,9,84,hard,0,6.06
Aberdeen,9,85,hard,0,10.378
Aberdeen,9,86,absent,1,15.824
Aberdeen,9,87,absent,1,9.166
Aberdeen,9,88,absent,1,11.907
Aberdeen,9,89,absent,1,6.554
Aberdeen,9,90,hard,0,11.092
Aberdeen,9,91,absent,1,10.703
Aberdeen,9,92,hard,1,3.264
Aberdeen,9,93,absent,1,11.241
Aberdeen,9,94,hard,1,3.54
Aberdeen,9,95,easy,1,1.542
Aberdeen,9,96,absent,1,13.846
Aberdeen,9,97,easy,1,0.817
Aberdeen,9,98,hard,1,2.618
Aberdeen,9,99,absent,1,6.962
Aberdeen,9,100,absent,1,5.531
Aberdeen,9,101,easy,1,0.676
Aberdeen,9,102,absent,1,5.797
Aberdeen,10,7,absent,1,11.621
Aberdeen,10,8,absent,1,6.614
Aberdeen,10,9,easy,1,1.698
Aberdeen,10,10,easy,1,4.528
Aberdeen,10,11,absent,1,6.247
Aberdeen,10,12,hard,0,6.236
Aberdeen,10,13,easy,1,1.958
Aberdeen,10,14,hard,1,10.99
Aberdeen,10,15,absent,0,3.653
Aberdeen,10,16,easy,1,5.015
Aberdeen,10,17,easy,1,1.744
Aberdeen,10,18,absent,1,9.739
Aberdeen,10,19,hard,0,9.196
Aberdeen,10,20,absent,0,5.07
Aberdeen,10,21,easy,1,4.037
Aberdeen,10,22,hard,0,10.864
Aberdeen,10,23,absent,0,3.833
Aberdeen,10,24,absent,0,3.94
Aberdeen,10,25,hard,1,2.09
Aberdeen,10,26,absent,0,2.113
Aberdeen,10,27,hard,1,3.676
Aberdeen,10,28,absent,0,2.745
Aberdeen,10,29,absent,0,3.234
Aberdeen,10,30,absent,0,7.014
Aberdeen,10,31,hard,1,2.271
Aberdeen,10,32,absent,0,3.809
Aberdeen,10,33,absent,0,6.244
Aberdeen,10,34,absent,0,7.885
Aberdeen,10,35,easy,1,5.506
Aberdeen,10,36,hard,1,8.745
Aberdeen,10,37,easy,0,8.612
Aberdeen,10,38,hard,0,12.469
Aberdeen,10,39,absent,1,14.173
Aberdeen,10,40,hard,0,18.349
Aberdeen,10,41,absent,1,17.918
Aberdeen,10,42,absent,1,14.991
Aberdeen,10,43,absent,1,15.16
Aberdeen,10,44,absent,1,13.365
Aberdeen,10,45,hard,0,19.471
Aberdeen,10,46,hard,0,28.052
Aberdeen,10,47,absent,0,7.862
Aberdeen,10,48,absent,0,2.977
Aberdeen,10,49,easy,1,12.964
Aberdeen,10,50,absent,1,23.143
Aberdeen,10,51,easy,1,2.384
Aberdeen,10,52,absent,1,18.894
Aberdeen,10,53,easy,1,2.179
Aberdeen,10,54,easy,1,1.595
Aberdeen,10,55,easy,1,3.292
Aberdeen,10,56,absent,1,13.855
Aberdeen,10,57,absent,1,14.772
Aberdeen,10,58,hard,0,12.849
Aberdeen,10,59,absent,1,17.139
Aberdeen,10,60,absent,1,16.749
Aberdeen,10,61,absent,1,19.603
Aberdeen,10,62,absent,1,17.027
Aberdeen,10,63,hard,1,22.631
Aberdeen,10,64,absent,1,25.976
Aberdeen,10,65,easy,1,3.433
Aberdeen,10,66,hard,1,10.258
Aberdeen,10,67,hard,1,5.151
Aberdeen,10,68,absent,0,4.9
Aberdeen,10,69,absent,0,4.471
Aberdeen,10,70,absent,1,21.297
Aberdeen,10,71,absent,0,18.237
Aberdeen,10,72,absent,0,2.912
Aberdeen,10,73,easy,1,4.251
Aberdeen,10,74,hard,1,7.682
Aberdeen,10,75,easy,1,1.662
Aberdeen,10,76,easy,1,2.283
Aberdeen,10,77,hard,0,10.753
Aberdeen,10,78,easy,1,9.396
Aberdeen,10,79,easy,1,1.207
Aberdeen,10,80,easy,0,12.35
Aberdeen,10,81,absent,0,1.87
Aberdeen,10,82,easy,1,1.223
Aberdeen,10,83,easy,1,1.254
Aberdeen,10,84,absent,1,9.668
Aberdeen,10,85,hard,0,9.037
Aberdeen,10,86,absent,0,2.668
Aberdeen,10,87,hard,1,2.619
Aberdeen,10,88,absent,1,8.315
Aberdeen,10,89,hard,0,4.355
Aberdeen,10,90,hard,1,8.845
Aberdeen,10,91,absent,1,10.449
Aberdeen,10,92,absent,1,11.519
Aberdeen,10,93,easy,1,1.491
Aberdeen,10,95,absent,1,14.537
Aberdeen,10,96,absent,1,10.488
Aberdeen,10,97,absent,1,13.25
Aberdeen,10,98,absent,1,10.479
Aberdeen,10,99,easy,1,1.653
Aberdeen,10,100,hard,1,3.033
Aberdeen,10,102,absent,1,14.414
Aberdeen,11,7,hard,0,1.696
Aberdeen,11,8,hard,1,1.561
Aberdeen,11,9,easy,1,1.022
Aberdeen,11,10,easy,1,0.876
Aberdeen,11,11,easy,1,0.866
Aberdeen,11,12,easy,1,0.854
Aberdeen,11,13,hard,0,2.668
Aberdeen,11,14,absent,1,5.416
Aberdeen,11,15,absent,1,4.398
Aberdeen,11,16,absent,1,2.924
Aberdeen,11,17,absent,1,2.849
Aberdeen,11,18,easy,1,1.021
Aberdeen,11,19,absent,1,3.532
Aberdeen,11,20,absent,1,2.55
Aberdeen,11,21,hard,0,4.481
Aberdeen,11,22,absent,0,2.356
Aberdeen,11,23,absent,1,4.421
Aberdeen,11,24,hard,0,2.849
Aberdeen,11,25,hard,0,6.649
Aberdeen,11,26,absent,1,6.359
Aberdeen,11,27,absent,1,6.354
Aberdeen,11,28,absent,1,4.873
Aberdeen,11,29,easy,1,0.805
Aberdeen,11,30,absent,1,4.812
Aberdeen,11,31,absent,1,5.396
Aberdeen,11,32,hard,0,4.854
Aberdeen,11,33,absent,0,3.263
Aberdeen,11,34,easy,1,1.371
Aberdeen,11,35,easy,1,1.509
Aberdeen,11,36,easy,1,0.971
Aberdeen,11,37,hard,0,5.652
Aberdeen,11,38,absent,1,6.667
Aberdeen,11,39,absent,1,5.724
Aberdeen,11,40,absent,1,5.185
Aberdeen,11,41,absent,1,2.847
Aberdeen,11,42,absent,1,4.778
Aberdeen,11,43,absent,1,4.331
Aberdeen,11,44,absent,1,3.339
Aberdeen,11,45,hard,0,4.767
Aberdeen,11,46,easy,1,0.764
Aberdeen,11,47,easy,1,0.663
Aberdeen,11,48,hard,1,3.497
Aberdeen,11,49,hard,0,5.81
Aberdeen,11,50,absent,1,3.252
Aberdeen,11,51,absent,1,4.362
Aberdeen,11,52,hard,0,5.552
Aberdeen,11,53,easy,1,0.737
Aberdeen,11,54,absent,0,2.172
Aberdeen,11,55,easy,1,0.853
Aberdeen,11,56,hard,1,3.212
Aberdeen,11,57,easy,1,0.633
Aberdeen,11,58,absent,1,6.855
Aberdeen,11,59,hard,1,3.635
Aberdeen,11,60,absent,1,5.399
Aberdeen,11,61,absent,1,3.405
Aberdeen,11,62,hard,0,5.999
Aberdeen,11,63,hard,1,2.353
Aberdeen,11,64,absent,1,4.754
Aberdeen,11,65,absent,1,4.135
Aberdeen,11,66,absent,1,5.309
Aberdeen,11,67,absent,1,6.069
Aberdeen,11,68,easy,1,0.662
Aberdeen,11,69,absent,1,3.98
Aberdeen,11,70,easy,1,0.781
Aberdeen,11,71,absent,1,5.704
Aberdeen,11,72,easy,1,0.696
Aberdeen,11,73,absent,1,4.638
Aberdeen,11,74,absent,1,5.054
Aberdeen,11,75,absent,1,4.346
Aberdeen,11,76,hard,0,5.049
Aberdeen,11,77,easy,1,0.751
Aberdeen,11,78,hard,1,4.267
Aberdeen,11,79,hard,0,3.585
Aberdeen,11,80,easy,1,1.121
Aberdeen,11,81,easy,1,0.6
Aberdeen,11,82,hard,0,6.291
Aberdeen,11,83,absent,1,4.192
Aberdeen,11,84,absent,1,5.994
Aberdeen,11,85,absent,1,4.207
Aberdeen,11,86,absent,1,5.926
Aberdeen,11,87,easy,1,0.786
Aberdeen,11,88,hard,0,4.355
Aberdeen,11,89,hard,0,6.397
Aberdeen,11,90,hard,0,4.108
Aberdeen,11,91,absent,1,6.975
Aberdeen,11,92,absent,1,7.423
Aberdeen,11,93,absent,0,3.285
Aberdeen,11,94,absent,1,4.781
Aberdeen,11,95,absent,1,5.486
Aberdeen,11,96,absent,1,5.932
Aberdeen,11,97,easy,1,0.884
Aberdeen,11,98,absent,1,4.339
Aberdeen,11,99,absent,1,5.898
Aberdeen,11,100,hard,0,4.569
Aberdeen,11,101,easy,0,5.368
Aberdeen,11,102,easy,1,0.856
Aberdeen,12,7,easy,1,1.031
Aberdeen,12,8,hard,0,6.822
Aberdeen,12,9,easy,1,1.766
Aberdeen,12,10,hard,0,9.531
Aberdeen,12,11,easy,1,3.086
Aberdeen,12,12,absent,0,4.682
Aberdeen,12,13,absent,1,7.853
Aberdeen,12,14,easy,1,1.896
Aberdeen,12,15,hard,0,5.491
Aberdeen,12,16,absent,1,11.965
Aberdeen,12,17,absent,1,8.453
Aberdeen,12,18,absent,1,6.942
Aberdeen,12,19,absent,1,6.92
Aberdeen,12,20,absent,1,6.928
Aberdeen,12,21,easy,1,1.26
Aberdeen,12,22,absent,1,8.729
Aberdeen,12,23,hard,0,6.599
Aberdeen,12,24,easy,1,8.939
Aberdeen,12,25,absent,1,7.9
Aberdeen,12,26,absent,1,4.173
Aberdeen,12,27,absent,0,5.029
Aberdeen,12,28,absent,1,6.73
Aberdeen,12,29,hard,0,9.401
Aberdeen,12,30,hard,0,10.729
Aberdeen,12,31,absent,1,9.472
Aberdeen,12,32,absent,1,8.538
Aberdeen,12,33,absent,1,6.039
Aberdeen,12,34,absent,0,9.057
Aberdeen,12,35,easy,1,1.608
Aberdeen,12,36,easy,1,4.151
Aberdeen,12,37,hard,0,6.691
Aberdeen,12,38,absent,0,8.148
Aberdeen,12,39,easy,1,3.046
Aberdeen,12,40,absent,1,6.502
Aberdeen,12,41,absent,1,7.289
Aberdeen,12,42,easy,1,2.087
Aberdeen,12,43,absent,1,8.739
Aberdeen,12,44,hard,1,5.466
Aberdeen,12,45,absent,1,6.888
Aberdeen,12,46,absent,1,6.651
Aberdeen,12,47,hard,1,5.762
Aberdeen,12,48,easy,1,0.897
Aberdeen,12,49,hard,1,4.3
Aberdeen,12,50,hard,1,4.467
Aberdeen,12,51,absent,1,8.854
Aberdeen,12,52,easy,1,1.033
Aberdeen,12,53,hard,0,3.984
Aberdeen,12,54,absent,0,1.724
Aberdeen,12,55,absent,1,9.34
Aberdeen,12,56,easy,1,0.87
Aberdeen,12,57,absent,1,5.872
Aberdeen,12,58,hard,0,6.842
Aberdeen,12,59,absent,0,1.322
Aberdeen,12,60,hard,0,5.598
Aberdeen,12,61,hard,0,7.183
Aberdeen,12,62,absent,1,7.143
Aberdeen,12,63,easy,1,1.236
Aberdeen,12,64,hard,0,5.855
Aberdeen,12,65,absent,1,8.694
Aberdeen,12,66,easy,1,1.216
Aberdeen,12,67,absent,1,7.292
Aberdeen,12,68,hard,0,8.473
Aberdeen,12,69,absent,1,4.211
Aberdeen,12,70,absent,1,8.579
Aberdeen,12,71,absent,1,5.56
Aberdeen,12,72,absent,1,9.995
Aberdeen,12,73,easy,1,0.812
Aberdeen,12,74,easy,1,0.842
Aberdeen,12,75,absent,1,6.856
Aberdeen,12,76,easy,1,0.855
Aberdeen,12,77,absent,1,2.66
Aberdeen,12,78,hard,0,10.389
Aberdeen,12,79,easy,1,0.846
Aberdeen,12,80,easy,1,1.355
Aberdeen,12,81,absent,1,5.643
Aberdeen,12,82,easy,1,0.794
Aberdeen,12,83,absent,1,4.116
Aberdeen,12,84,hard,0,3.347
Aberdeen,12,85,hard,0,3.722
Aberdeen,12,86,absent,1,4.402
Aberdeen,12,87,absent,1,5.46
Aberdeen,12,88,absent,1,4.998
Aberdeen,12,89,absent,1,5.187
Aberdeen,12,90,hard,1,4.933
Aberdeen,12,91,absent,1,6.412
Aberdeen,12,92,hard,0,5.999
Aberdeen,12,93,absent,1,2.858
Aberdeen,12,94,hard,1,1.992
Aberdeen,12,95,easy,1,1.705
Aberdeen,12,96,absent,1,2.325
Aberdeen,12,97,easy,1,0.79
Aberdeen,12,98,hard,0,3.354
Aberdeen,12,99,absent,1,2.777
Aberdeen,12,100,absent,1,3.71
Aberdeen,12,101,easy,1,1.301
Aberdeen,12,102,absent,1,1.743
Aberdeen,13,7,absent,1,2.476
Aberdeen,13,8,hard,0,3.274
Aberdeen,13,9,easy,1,1.588
Aberdeen,13,10,hard,1,2.308
Aberdeen,13,11,absent,1,4.669
Aberdeen,13,12,hard,0,4.828
Aberdeen,13,13,easy,1,1.167
Aberdeen,13,14,absent,1,5.732
Aberdeen,13,15,absent,1,4.523
Aberdeen,13,16,easy,1,0.994
Aberdeen,13,17,absent,1,3.632
Aberdeen,13,18,easy,1,1.208
Aberdeen,13,19,hard,1,2.771
Aberdeen,13,20,hard,0,2.384
Aberdeen,13,21,absent,1,4.477
Aberdeen,13,22,absent,1,3.608
Aberdeen,13,23,absent,1,3.226
Aberdeen,13,24,absent,1,4.002
Aberdeen,13,25,hard,1,4.145
Aberdeen,13,26,easy,1,0.974
Aberdeen,13,27,absent,1,5.295
Aberdeen,13,28,absent,1,4.378
Aberdeen,13,29,absent,1,4.639
Aberdeen,13,30,easy,1,0.72
Aberdeen,13,31,easy,1,0.764
Aberdeen,13,32,hard,0,2.241
Aberdeen,13,33,easy,1,0.946
Aberdeen,13,34,easy,1,0.71
Aberdeen,13,35,hard,0,3.879
Aberdeen,13,36,absent,1,4.349
Aberdeen,13,37,absent,1,2.695
Aberdeen,13,38,easy,1,1.227
Aberdeen,13,39,absent,1,4.294
Aberdeen,13,40,absent,1,3.556
Aberdeen,13,41,hard,0,3.409
Aberdeen,13,42,easy,1,0.992
Aberdeen,13,43,easy,1,1.17
Aberdeen,13,44,absent,1,2.607
Aberdeen,13,45,absent,1,4.933
Aberdeen,13,46,hard,0,3.098
Aberdeen,13,47,absent,1,3.816
Aberdeen,13,48,absent,1,3.833
Aberdeen,13,49,absent,1,4.052
Aberdeen,13,50,absent,1,3.801
Aberdeen,13,51,absent,1,5.518
Aberdeen,13,52,absent,1,4.484
Aberdeen,13,53,hard,0,5.572
Aberdeen,13,54,hard,0,3.364
Aberdeen,13,55,absent,1,3.421
Aberdeen,13,56,absent,1,3.652
Aberdeen,13,57,hard,0,3.235
Aberdeen,13,58,easy,1,1.175
Aberdeen,13,59,easy,1,1.006
Aberdeen,13,60,easy,1,0.781
Aberdeen,13,61,absent,1,2.506
Aberdeen,13,62,hard,0,4.166
Aberdeen,13,63,absent,1,3.225
Aberdeen,13,64,absent,1,4.271
Aberdeen,13,65,easy,1,1.096
Aberdeen,13,66,hard,1,4.38
Aberdeen,13,67,absent,1,5.105
Aberdeen,13,68,hard,1,3.608
Aberdeen,13,69,absent,1,5.219
Aberdeen,13,70,easy,1,3.469
Aberdeen,13,71,hard,0,5.174
Aberdeen,13,72,absent,1,3.55
Aberdeen,13,73,absent,1,6.272
Aberdeen,13,74,absent,1,3.388
Aberdeen,13,75,absent,1,3.319
Aberdeen,13,76,easy,1,0.917
Aberdeen,13,77,hard,0,6.29
Aberdeen,13,78,absent,1,4.78
Aberdeen,13,79,easy,1,1.118
Aberdeen,13,80,hard,0,3.067
Aberdeen,13,81,hard,0,3.552
Aberdeen,13,82,absent,1,4.551
Aberdeen,13,83,absent,1,5.714
Aberdeen,13,84,absent,1,6.916
Aberdeen,13,85,absent,1,6.906
Aberdeen,13,86,absent,1,6.573
Aberdeen,13,87,easy,1,1.164
Aberdeen,13,88,hard,0,5.28
Aberdeen,13,89,easy,1,2.288
Aberdeen,13,90,absent,1,5.616
Aberdeen,13,91,hard,0,6.428
Aberdeen,13,92,absent,1,5.096
Aberdeen,13,93,absent,1,4.459
Aberdeen,13,94,hard,1,4.289
Aberdeen,13,95,absent,1,5.62
Aberdeen,13,96,easy,1,1.257
Aberdeen,13,97,hard,0,9.221
Aberdeen,13,98,absent,1,3.137
Aberdeen,13,99,easy,1,0.778
Aberdeen,13,100,absent,1,8.219
Aberdeen,13,101,easy,1,0.912
Aberdeen,13,102,absent,1,5.399
Aberdeen,14,7,easy,1,1.727
Aberdeen,14,8,hard,1,1.446
Aberdeen,14,9,easy,1,1.114
Aberdeen,14,10,hard,0,4.792
Aberdeen,14,11,easy,1,2.708
Aberdeen,14,12,absent,1,4.22
Aberdeen,14,13,absent,0,3.906
Aberdeen,14,14,easy,1,1.776
Aberdeen,14,15,hard,0,2.794
Aberdeen,14,16,absent,1,3.479
Aberdeen,14,17,absent,1,4.532
Aberdeen,14,18,absent,1,4.253
Aberdeen,14,19,absent,1,3.111
Aberdeen,14,20,absent,1,4.342
Aberdeen,14,21,easy,1,1.323
Aberdeen,14,22,absent,0,4.173
Aberdeen,14,23,hard,1,3.268
Aberdeen,14,24,easy,1,1.565
Aberdeen,14,25,absent,1,4.933
Aberdeen,14,26,absent,0,1.366
Aberdeen,14,27,absent,1,3.908
Aberdeen,14,28,absent,1,3.904
Aberdeen,14,29,hard,0,1.964
Aberdeen,14,30,hard,1,2.223
Aberdeen,14,31,absent,1,3.301
Aberdeen,14,32,absent,1,2.517
Aberdeen,14,33,absent,0,2.688
Aberdeen,14,34,absent,0,2.448
Aberdeen,14,35,easy,1,1.786
Aberdeen,14,36,easy,1,1.18
Aberdeen,14,37,hard,1,1.943
Aberdeen,14,38,absent,0,1.086
Aberdeen,14,39,easy,1,0.939
Aberdeen,14,40,absent,1,2.452
Aberdeen,14,41,absent,0,2.485
Aberdeen,14,42,easy,1,1.351
Aberdeen,14,43,absent,0,1.995
Aberdeen,14,44,hard,1,3.483
Aberdeen,14,45,absent,0,1.2
Aberdeen,14,46,absent,0,1.536
Aberdeen,14,47,hard,0,2.818
Aberdeen,14,48,easy,1,1.207
Aberdeen,14,49,hard,1,1.741
Aberdeen,14,50,hard,1,2.021
Aberdeen,14,51,absent,1,3.811
Aberdeen,14,52,easy,1,0.971
Aberdeen,14,53,hard,1,1.988
Aberdeen,14,54,absent,1,3.161
Aberdeen,14,55,absent,1,2.532
Aberdeen,14,56,easy,0,1.474
Aberdeen,14,57,absent,1,3.347
Aberdeen,14,58,hard,0,3.266
Aberdeen,14,59,absent,1,3.192
Aberdeen,14,60,hard,1,3.589
Aberdeen,14,61,hard,1,1.9
Aberdeen,14,62,absent,1,4.518
Aberdeen,14,63,easy,1,1.36
Aberdeen,14,64,hard,0,3.803
Aberdeen,14,65,absent,1,3.191
Aberdeen,14,66,easy,1,2.12
Aberdeen,14,67,absent,1,4.049
Aberdeen,14,68,hard,1,2.177
Aberdeen,14,69,absent,1,3.354
Aberdeen,14,70,absent,0,4.516
Aberdeen,14,71,absent,0,2.63
Aberdeen,14,72,absent,1,3.569
Aberdeen,14,73,easy,1,1.78
Aberdeen,14,74,easy,1,1.713
Aberdeen,14,75,absent,1,3.584
Aberdeen,14,76,easy,1,1.238
Aberdeen,14,77,absent,1,2.944
Aberdeen,14,78,hard,0,4.257
Aberdeen,14,79,easy,1,1.558
Aberdeen,14,80,easy,1,1.057
Aberdeen,14,81,absent,1,6.026
Aberdeen,14,82,easy,1,1.351
Aberdeen,14,83,absent,1,3.202
Aberdeen,14,84,hard,0,3.267
Aberdeen,14,85,hard,1,2.58
Aberdeen,14,86,absent,0,2.857
Aberdeen,14,87,absent,1,2.946
Aberdeen,14,88,absent,1,2.257
Aberdeen,14,89,absent,1,2.074
Aberdeen,14,90,hard,0,1.578
Aberdeen,14,91,absent,1,1.092
Aberdeen,14,92,hard,0,1.845
Aberdeen,14,93,absent,1,4.42
Aberdeen,14,94,hard,1,2.613
Aberdeen,14,95,easy,1,1.81
Aberdeen,14,96,absent,0,1.66
Aberdeen,14,97,easy,1,1.282
Aberdeen,14,98,hard,1,4.196
Aberdeen,14,99,absent,1,3.012
Aberdeen,14,100,absent,1,2.293
Aberdeen,14,101,easy,1,0.987
Aberdeen,14,102,absent,1,2.404
Aberdeen,15,7,easy,1,1.087
Aberdeen,15,8,hard,0,2.832
Aberdeen,15,9,easy,1,0.682
Aberdeen,15,10,hard,1,1.876
Aberdeen,15,11,easy,1,0.851
Aberdeen,15,12,absent,1,3.247
Aberdeen,15,13,absent,1,5.144
Aberdeen,15,14,easy,1,0.855
Aberdeen,15,15,hard,1,4.672
Aberdeen,15,16,absent,1,3.1
Aberdeen,15,17,absent,0,1.738
Aberdeen,15,18,absent,1,5.462
Aberdeen,15,19,absent,1,5.323
Aberdeen,15,20,absent,1,5.68
Aberdeen,15,21,easy,1,1.193
Aberdeen,15,22,absent,1,4.549
Aberdeen,15,23,hard,0,3.959
Aberdeen,15,24,easy,1,0.714
Aberdeen,15,25,absent,1,4.811
Aberdeen,15,26,absent,1,4.969
Aberdeen,15,27,absent,1,3.691
Aberdeen,15,28,absent,1,3.658
Aberdeen,15,29,hard,0,2.906
Aberdeen,15,31,absent,1,4.253
Aberdeen,15,32,absent,1,5.461
Aberdeen,15,34,absent,1,3.713
Aberdeen,15,35,easy,1,0.636
Aberdeen,15,36,easy,1,0.616
Aberdeen,15,37,hard,0,4.625
Aberdeen,15,38,absent,1,5.674
Aberdeen,15,39,easy,1,0.668
Aberdeen,15,40,absent,1,4.771
Aberdeen,15,41,absent,0,4.503
Aberdeen,15,42,easy,1,0.675
Aberdeen,15,43,absent,0,2.168
Aberdeen,15,44,hard,1,4.589
Aberdeen,15,45,absent,1,5.575
Aberdeen,15,46,absent,1,5.497
Aberdeen,15,47,hard,1,1.091
Aberdeen,15,48,easy,1,0.647
Aberdeen,15,49,hard,0,3.361
Aberdeen,15,50,hard,1,1.331
Aberdeen,15,51,absent,1,6.605
Aberdeen,15,52,easy,1,0.672
Aberdeen,15,53,hard,0,5.153
Aberdeen,15,54,absent,1,4.319
Aberdeen,15,55,absent,1,5.326
Aberdeen,15,56,easy,1,0.923
Aberdeen,15,57,absent,1,4.908
Aberdeen,15,58,hard,0,5.683
Aberdeen,15,59,absent,1,4.9
Aberdeen,15,60,hard,1,4.547
Aberdeen,15,61,hard,1,2.421
Aberdeen,15,62,absent,1,6.4
Aberdeen,15,63,easy,1,0.634
Aberdeen,15,64,hard,0,6.926
Aberdeen,15,65,absent,1,5.93
Aberdeen,15,66,easy,1,0.823
Aberdeen,15,67,absent,1,5.856
Aberdeen,15,68,hard,0,6.038
Aberdeen,15,69,absent,1,6.866
Aberdeen,15,70,absent,1,2.794
Aberdeen,15,71,absent,1,4.743
Aberdeen,15,72,absent,0,2.714
Aberdeen,15,73,easy,1,0.65
Aberdeen,15,74,easy,1,0.537
Aberdeen,15,75,absent,1,5.378
Aberdeen,15,76,easy,1,0.767
Aberdeen,15,77,absent,0,3.654
Aberdeen,15,78,hard,0,5.072
Aberdeen,15,79,easy,1,1.07
Aberdeen,15,80,easy,1,0.601
Aberdeen,15,81,absent,1,7.341
Aberdeen,15,82,easy,1,0.649
Aberdeen,15,83,absent,1,6.503
Aberdeen,15,84,hard,1,1.63
Aberdeen,15,85,hard,1,4.025
Aberdeen,15,86,absent,0,3.848
Aberdeen,15,87,absent,1,6.399
Aberdeen,15,88,absent,1,4.583
Aberdeen,15,89,absent,1,3.829
Aberdeen,15,90,hard,0,4.968
Aberdeen,15,91,absent,1,5.237
Aberdeen,15,92,hard,1,3.637
Aberdeen,15,93,absent,0,1.267
Aberdeen,15,94,hard,0,4.126
Aberdeen,15,95,easy,1,0.836
Aberdeen,15,96,absent,0,3.029
Aberdeen,15,97,easy,1,0.649
Aberdeen,15,98,hard,1,2.78
Aberdeen,15,99,absent,1,7.022
Aberdeen,15,100,absent,1,5.946
Aberdeen,15,101,easy,1,0.772
Aberdeen,15,102,absent,1,4.206
Aberdeen,16,7,easy,1,1.754
Aberdeen,16,8,hard,0,8.135
Aberdeen,16,9,easy,1,2.158
Aberdeen,16,10,hard,0,15.313
Aberdeen,16,11,easy,1,1.11
Aberdeen,16,12,absent,1,27.851
Aberdeen,16,13,absent,1,26.624
Aberdeen,16,14,easy,1,6.402
Aberdeen,16,15,hard,1,18.089
Aberdeen,16,16,absent,1,22.163
Aberdeen,16,17,absent,1,24.349
Aberdeen,16,18,absent,1,22.525
Aberdeen,16,19,absent,1,23.333
Aberdeen,16,20,absent,1,25.459
Aberdeen,16,21,easy,1,1.595
Aberdeen,16,22,absent,1,27.643
Aberdeen,16,23,hard,1,18.888
Aberdeen,16,24,easy,1,1.526
Aberdeen,16,25,absent,1,20.672
Aberdeen,16,26,absent,1,18.216
Aberdeen,16,27,absent,1,19.375
Aberdeen,16,28,absent,1,19.006
Aberdeen,16,29,hard,0,17.382
Aberdeen,16,30,hard,1,13.814
Aberdeen,16,31,absent,1,18.745
Aberdeen,16,32,absent,1,22.343
Aberdeen,16,33,absent,1,21.38
Aberdeen,16,34,absent,1,19.047
Aberdeen,16,35,easy,1,1.212
Aberdeen,16,36,easy,1,1.144
Aberdeen,16,37,hard,1,11.148
Aberdeen,16,38,absent,1,25.444
Aberdeen,16,39,easy,1,2.02
Aberdeen,16,40,absent,1,21.372
Aberdeen,16,41,absent,1,24.353
Aberdeen,16,42,easy,1,1.195
Aberdeen,16,43,absent,1,24.261
Aberdeen,16,44,hard,0,21.418
Aberdeen,16,45,absent,1,30.688
Aberdeen,16,46,absent,1,21.732
Aberdeen,16,47,hard,1,5.318
Aberdeen,16,48,easy,1,0.913
Aberdeen,16,49,hard,1,3.724
Aberdeen,16,50,hard,1,1.308
Aberdeen,16,51,absent,1,29.125
Aberdeen,16,52,easy,1,0.872
Aberdeen,16,53,hard,1,18.274
Aberdeen,16,54,absent,1,21.89
Aberdeen,16,55,absent,1,22.284
Aberdeen,16,56,easy,1,1.327
Aberdeen,16,57,absent,1,20.992
Aberdeen,16,58,hard,1,4.129
Aberdeen,16,59,absent,1,26.798
Aberdeen,16,60,hard,1,29.322
Aberdeen,16,61,hard,1,22.753
Aberdeen,16,62,absent,1,22.903
Aberdeen,16,63,easy,1,0.952
Aberdeen,16,64,hard,0,22.411
Aberdeen,16,65,absent,1,24.299
Aberdeen,16,66,easy,1,0.889
Aberdeen,16,67,absent,1,26.468
Aberdeen,16,68,hard,1,24.571
Aberdeen,16,69,absent,1,21.746
Aberdeen,16,70,absent,1,21.76
Aberdeen,16,71,absent,1,22.6
Aberdeen,16,72,absent,1,21.477
Aberdeen,16,74,easy,1,0.715
Aberdeen,16,75,absent,1,26.41
Aberdeen,16,76,easy,1,0.859
Aberdeen,16,77,absent,1,21.331
Aberdeen,16,78,hard,1,18.749
Aberdeen,16,79,easy,1,2.018
Aberdeen,16,80,easy,1,0.722
Aberdeen,16,81,absent,1,21.976
Aberdeen,16,82,easy,1,0.755
Aberdeen,16,83,absent,1,20.914
Aberdeen,16,84,hard,1,17.098
Aberdeen,16,85,hard,1,2
Aberdeen,16,86,absent,1,26.811
Aberdeen,16,87,absent,1,24.177
Aberdeen,16,88,absent,1,19.844
Aberdeen,16,89,absent,1,22.393
Aberdeen,16,90,hard,1,5.633
Aberdeen,16,91,absent,1,27.475
Aberdeen,16,92,hard,1,2.068
Aberdeen,16,93,absent,1,23.596
Aberdeen,16,94,hard,1,1.92
Aberdeen,16,95,easy,1,0.916
Aberdeen,16,96,absent,1,27.204
Aberdeen,16,97,easy,1,0.674
Aberdeen,16,98,hard,1,15.396
Aberdeen,16,99,absent,1,30.653
Aberdeen,16,100,absent,1,20.018
Aberdeen,16,101,easy,1,0.779
Aberdeen,16,102,absent,1,25.684
Aberdeen,17,7,absent,1,8.972
Aberdeen,17,8,absent,1,4.101
Aberdeen,17,9,easy,1,1.066
Aberdeen,17,10,easy,1,1.594
Aberdeen,17,11,absent,1,5.538
Aberdeen,17,12,hard,1,1.729
Aberdeen,17,13,easy,1,1.416
Aberdeen,17,14,hard,0,5.124
Aberdeen,17,15,absent,1,7.212
Aberdeen,17,16,easy,1,0.746
Aberdeen,17,17,easy,1,2.163
Aberdeen,17,18,absent,1,6.562
Aberdeen,17,19,hard,0,5.699
Aberdeen,17,20,absent,1,5.243
Aberdeen,17,21,easy,1,1.011
Aberdeen,17,22,hard,0,10.119
Aberdeen,17,23,absent,1,5.648
Aberdeen,17,24,absent,1,7.843
Aberdeen,17,25,hard,0,5.441
Aberdeen,17,26,absent,0,7.529
Aberdeen,17,27,hard,0,16.467
Aberdeen,17,28,absent,0,2.264
Aberdeen,17,29,absent,0,7.364
Aberdeen,17,30,absent,1,15.289
Aberdeen,17,31,hard,1,4.056
Aberdeen,17,32,absent,1,10.191
Aberdeen,17,33,absent,1,8.025
Aberdeen,17,34,absent,1,6.735
Aberdeen,17,35,easy,1,1.137
Aberdeen,17,36,hard,1,1.077
Aberdeen,17,37,easy,1,1.298
Aberdeen,17,38,hard,1,2.124
Aberdeen,17,39,absent,1,5.803
Aberdeen,17,40,hard,0,5.368
Aberdeen,17,41,absent,1,8.357
Aberdeen,17,42,absent,1,10.577
Aberdeen,17,43,absent,1,8.078
Aberdeen,17,44,absent,1,7.537
Aberdeen,17,45,hard,1,0.752
Aberdeen,17,46,hard,0,5.594
Aberdeen,17,47,absent,1,9.221
Aberdeen,17,48,absent,1,6.422
Aberdeen,17,49,easy,1,0.771
Aberdeen,17,50,absent,1,6.176
Aberdeen,17,51,easy,1,0.831
Aberdeen,17,52,absent,1,4.497
Aberdeen,17,53,easy,1,0.869
Aberdeen,17,54,easy,1,0.901
Aberdeen,17,55,easy,1,1.129
Aberdeen,17,56,absent,1,2.725
Aberdeen,17,57,absent,1,3.884
Aberdeen,17,58,hard,0,4.155
Aberdeen,17,59,absent,1,4.67
Aberdeen,17,60,absent,1,6.319
Aberdeen,17,61,absent,1,6.94
Aberdeen,17,62,absent,1,10.795
Aberdeen,17,63,hard,0,8.786
Aberdeen,17,64,absent,1,13.772
Aberdeen,17,65,easy,1,0.949
Aberdeen,17,66,hard,1,13.793
Aberdeen,17,67,hard,1,13.736
Aberdeen,17,68,absent,1,9.806
Aberdeen,17,69,absent,1,12.387
Aberdeen,17,70,absent,1,12.314
Aberdeen,17,71,absent,1,10.383
Aberdeen,17,72,absent,1,11.653
Aberdeen,17,73,easy,1,0.73
Aberdeen,17,74,hard,1,10.212
Aberdeen,17,75,easy,1,0.678
Aberdeen,17,76,easy,1,0.698
Aberdeen,17,77,hard,0,15.677
Aberdeen,17,78,easy,1,0.952
Aberdeen,17,79,easy,1,0.714
Aberdeen,17,80,easy,1,0.806
Aberdeen,17,81,absent,1,11.741
Aberdeen,17,82,easy,1,0.938
Aberdeen,17,83,easy,1,0.836
Aberdeen,17,84,absent,1,14.985
Aberdeen,17,85,hard,0,9.72
Aberdeen,17,86,absent,1,15.347
Aberdeen,17,87,hard,0,11.904
Aberdeen,17,88,absent,1,13.066
Aberdeen,17,89,hard,0,9.87
Aberdeen,17,90,hard,0,6.419
Aberdeen,17,91,absent,1,12.233
Aberdeen,17,92,absent,1,9.724
Aberdeen,17,93,easy,1,0.772
Aberdeen,17,94,absent,1,13.079
Aberdeen,17,95,absent,1,14.162
Aberdeen,17,96,absent,1,13.258
Aberdeen,17,97,absent,1,14.259
Aberdeen,17,98,absent,1,10.599
Aberdeen,17,99,easy,1,0.78
Aberdeen,17,100,hard,0,11.102
Aberdeen,17,101,hard,0,10.907
Aberdeen,17,102,absent,1,16.367
Aberdeen,18,7,easy,1,3.538
Aberdeen,18,8,absent,0,2.166
Aberdeen,18,9,absent,1,3.277
Aberdeen,18,10,absent,1,5.123
Aberdeen,18,11,hard,0,3.974
Aberdeen,18,12,absent,1,6.536
Aberdeen,18,13,absent,1,9.524
Aberdeen,18,14,hard,0,7.366
Aberdeen,18,15,absent,1,8.573
Aberdeen,18,16,hard,1,3.415
Aberdeen,18,17,hard,0,6.566
Aberdeen,18,18,easy,1,1.151
Aberdeen,18,19,hard,0,6.602
Aberdeen,18,20,easy,1,0.636
Aberdeen,18,21,hard,1,13.181
Aberdeen,18,22,absent,0,8.97
Aberdeen,18,23,absent,1,7.159
Aberdeen,18,24,absent,1,4.939
Aberdeen,18,25,absent,0,2.522
Aberdeen,18,26,absent,1,5.744
Aberdeen,18,27,easy,1,0.893
Aberdeen,18,28,easy,1,1.205
Aberdeen,18,29,absent,1,12.647
Aberdeen,18,30,easy,1,0.763
Aberdeen,18,31,absent,1,4.133
Aberdeen,18,32,easy,1,0.913
Aberdeen,18,33,hard,0,9.392
Aberdeen,18,34,absent,0,1.177
Aberdeen,18,35,absent,0,1.294
Aberdeen,18,36,absent,1,9.067
Aberdeen,18,37,hard,0,10.319
Aberdeen,18,38,absent,1,5.188
Aberdeen,18,39,easy,1,0.702
Aberdeen,18,40,easy,1,0.802
Aberdeen,18,41,hard,0,9.286
Aberdeen,18,42,easy,1,0.966
Aberdeen,18,43,easy,1,0.77
Aberdeen,18,44,easy,1,0.743
Aberdeen,18,45,absent,1,9.158
Aberdeen,18,46,absent,1,8.459
Aberdeen,18,47,absent,1,8.067
Aberdeen,18,48,absent,1,4.25
Aberdeen,18,49,hard,0,2.958
Aberdeen,18,50,hard,0,3.239
Aberdeen,18,51,absent,1,5.742
Aberdeen,18,52,absent,1,6.82
Aberdeen,18,53,absent,1,4.826
Aberdeen,18,54,hard,0,19.128
Aberdeen,18,55,absent,1,2.087
Aberdeen,18,56,absent,1,3.481
Aberdeen,18,57,easy,1,0.937
Aberdeen,18,58,easy,1,0.825
Aberdeen,18,59,absent,1,1.445
Aberdeen,18,60,easy,1,0.644
Aberdeen,18,61,absent,1,4.195
Aberdeen,18,62,hard,0,3.662
Aberdeen,18,64,easy,1,0.721
Aberdeen,18,65,absent,1,2.641
Aberdeen,18,66,absent,1,6.561
Aberdeen,18,67,hard,1,2.88
Aberdeen,18,68,absent,1,2.239
Aberdeen,18,69,easy,1,0.783
Aberdeen,18,70,absent,1,6.362
Aberdeen,18,71,absent,1,5.766
Aberdeen,18,72,hard,0,4.079
Aberdeen,18,73,hard,0,2.595
Aberdeen,18,74,absent,1,3.419
Aberdeen,18,75,hard,0,3.056
Aberdeen,18,76,absent,1,3.47
Aberdeen,18,77,hard,0,3.761
Aberdeen,18,78,easy,1,1.217
Aberdeen,18,79,easy,1,0.777
Aberdeen,18,80,easy,1,0.727
Aberdeen,18,81,hard,0,3.793
Aberdeen,18,82,absent,1,3.763
Aberdeen,18,83,easy,1,0.805
Aberdeen,18,84,absent,1,2.198
Aberdeen,18,85,easy,0,2.108
Aberdeen,18,86,hard,1,2.321
Aberdeen,18,87,hard,0,4.431
Aberdeen,18,88,hard,0,7.759
Aberdeen,18,89,absent,0,9.844
Aberdeen,18,90,easy,1,1.897
Aberdeen,18,91,absent,1,7.026
Aberdeen,18,92,absent,1,5.57
Aberdeen,18,93,absent,1,3.085
Aberdeen,18,94,absent,1,5.393
Aberdeen,18,95,absent,1,4.912
Aberdeen,18,96,hard,1,2.868
Aberdeen,18,97,absent,1,3.687
Aberdeen,18,98,absent,0,7.407
Aberdeen,18,99,easy,1,0.687
Aberdeen,18,100,hard,0,4.404
Aberdeen,18,101,absent,0,8.885
Aberdeen,18,102,absent,1,11.599
Aberdeen,19,7,absent,1,7.527
Aberdeen,19,8,hard,0,5.398
Aberdeen,19,9,absent,1,7.429
Aberdeen,19,10,absent,1,6.479
Aberdeen,19,11,absent,1,6.909
Aberdeen,19,12,absent,1,8.624
Aberdeen,19,13,hard,0,5.465
Aberdeen,19,14,hard,0,13.745
Aberdeen,19,15,absent,0,4.348
Aberdeen,19,16,hard,1,5.116
Aberdeen,19,17,hard,0,13.832
Aberdeen,19,18,easy,0,12.709
Aberdeen,19,19,easy,1,0.986
Aberdeen,19,20,absent,1,10.899
Aberdeen,19,21,easy,1,1.288
Aberdeen,19,22,absent,1,9.806
Aberdeen,19,23,easy,1,2.438
Aberdeen,19,24,easy,1,2.084
Aberdeen,19,25,hard,1,7.559
Aberdeen,19,26,absent,1,10.162
Aberdeen,19,27,absent,1,6.339
Aberdeen,19,28,easy,1,1.014
Aberdeen,19,29,absent,1,9.979
Aberdeen,19,30,absent,1,9.951
Aberdeen,19,31,easy,1,1.135
Aberdeen,19,32,easy,1,0.747
Aberdeen,19,33,hard,0,6.227
Aberdeen,19,34,absent,1,8.011
Aberdeen,19,35,easy,1,0.998
Aberdeen,19,36,absent,1,9.299
Aberdeen,19,37,absent,1,6.824
Aberdeen,19,38,easy,1,1.399
Aberdeen,19,39,hard,0,6.127
Aberdeen,19,40,absent,0,5.321
Aberdeen,19,41,absent,1,5.332
Aberdeen,19,42,hard,0,5.758
Aberdeen,19,43,hard,0,8.672
Aberdeen,19,44,absent,1,11.237
Aberdeen,19,45,absent,1,7.469
Aberdeen,19,46,absent,1,8.39
Aberdeen,19,47,absent,1,7.477
Aberdeen,19,48,hard,0,4.191
Aberdeen,19,49,easy,1,1.244
Aberdeen,19,50,absent,1,5.88
Aberdeen,19,51,hard,0,5.991
Aberdeen,19,52,absent,1,9.318
Aberdeen,19,53,absent,1,6.486
Aberdeen,19,54,easy,1,4.715
Aberdeen,19,55,absent,1,5.323
Aberdeen,19,56,easy,1,0.768
Aberdeen,19,57,easy,1,0.619
Aberdeen,19,58,easy,1,0.538
Aberdeen,19,59,hard,0,5.077
Aberdeen,19,60,hard,0,6.079
Aberdeen,19,61,absent,1,9.743
Aberdeen,19,62,hard,1,4.146
Aberdeen,19,63,easy,1,0.945
Aberdeen,19,64,absent,1,4.906
Aberdeen,19,65,easy,1,1
Aberdeen,19,66,absent,1,6.954
Aberdeen,19,67,absent,1,9.053
Aberdeen,19,68,hard,0,7.242
Aberdeen,19,69,easy,1,0.726
Aberdeen,19,70,absent,1,7.116
Aberdeen,19,71,absent,1,5.88
Aberdeen,19,72,absent,1,5.738
Aberdeen,19,73,absent,1,7.143
Aberdeen,19,74,absent,1,6.676
Aberdeen,19,75,hard,0,5.128
Aberdeen,19,76,hard,0,5.975
Aberdeen,19,77,absent,1,10.037
Aberdeen,19,78,absent,1,9.428
Aberdeen,19,79,easy,1,1.504
Aberdeen,19,80,hard,0,9.509
Aberdeen,19,81,absent,1,11.21
Aberdeen,19,82,absent,1,8.686
Aberdeen,19,83,absent,1,7.323
Aberdeen,19,84,hard,0,4.143
Aberdeen,19,85,hard,1,4.466
Aberdeen,19,86,absent,1,12.116
Aberdeen,19,87,absent,1,4.818
Aberdeen,19,88,absent,1,4.257
Aberdeen,19,89,hard,0,4.953
Aberdeen,19,90,absent,1,9.3
Aberdeen,19,91,hard,0,5.433
Aberdeen,19,92,easy,1,4.406
Aberdeen,19,93,absent,1,6.075
Aberdeen,19,94,easy,1,0.921
Aberdeen,19,95,absent,1,7.662
Aberdeen,19,96,absent,1,7.995
Aberdeen,19,97,easy,1,0.855
Aberdeen,19,98,hard,0,8.596
Aberdeen,19,99,easy,1,2.525
Aberdeen,19,100,absent,1,4.377
Aberdeen,19,101,absent,1,5.499
Aberdeen,19,102,easy,1,2.265
Aberdeen,20,7,easy,1,2.944
Aberdeen,20,8,hard,0,7.434
Aberdeen,20,9,easy,1,1.294
Aberdeen,20,10,hard,0,16.365
Aberdeen,20,11,easy,1,2.991
Aberdeen,20,12,absent,1,12.104
Aberdeen,20,13,absent,1,11.306
Aberdeen,20,14,easy,1,1.651
Aberdeen,20,15,hard,0,15.029
Aberdeen,20,16,absent,1,22.791
Aberdeen,20,17,absent,1,15.182
Aberdeen,20,18,absent,1,16.034
Aberdeen,20,19,absent,1,19.582
Aberdeen,20,20,absent,1,17.934
Aberdeen,20,21,easy,1,1.136
Aberdeen,20,22,absent,1,14.933
Aberdeen,20,23,hard,1,4.578
Aberdeen,20,24,easy,1,1.144
Aberdeen,20,25,absent,1,15.948
Aberdeen,20,26,absent,1,14.064
Aberdeen,20,27,absent,1,16.03
Aberdeen,20,28,absent,1,15.169
Aberdeen,20,29,hard,1,1.587
Aberdeen,20,30,hard,1,7.078
Aberdeen,20,31,absent,1,11.222
Aberdeen,20,32,absent,1,14.482
Aberdeen,20,33,absent,1,13.596
Aberdeen,20,34,absent,0,9.822
Aberdeen,20,35,easy,1,0.777
Aberdeen,20,36,easy,1,0.939
Aberdeen,20,37,hard,0,18.09
Aberdeen,20,38,absent,1,12.176
Aberdeen,20,39,easy,1,0.82
Aberdeen,20,40,absent,1,10.148
Aberdeen,20,41,absent,0,9.34
Aberdeen,20,42,easy,1,0.813
Aberdeen,20,43,absent,1,10.795
Aberdeen,20,44,hard,0,3.726
Aberdeen,20,45,absent,1,13.67
Aberdeen,20,46,absent,0,10.588
Aberdeen,20,47,hard,0,12.951
Aberdeen,20,48,easy,1,0.965
Aberdeen,20,49,hard,0,13.9
Aberdeen,20,50,hard,1,12.451
Aberdeen,20,51,absent,0,4.065
Aberdeen,20,52,easy,1,0.702
Aberdeen,20,53,hard,0,13.712
Aberdeen,20,54,absent,0,6.261
Aberdeen,20,55,absent,1,9.871
Aberdeen,20,56,easy,1,0.707
Aberdeen,20,57,absent,1,12.853
Aberdeen,20,58,hard,0,11.172
Aberdeen,20,59,absent,0,9.569
Aberdeen,20,60,hard,0,14.849
Aberdeen,20,61,hard,0,34.385
Aberdeen,20,62,absent,0,16.708
Aberdeen,20,63,easy,1,1.333
Aberdeen,20,64,hard,1,26.392
Aberdeen,20,65,absent,0,15.805
Aberdeen,20,66,easy,1,1.189
Aberdeen,20,67,absent,1,24.225
Aberdeen,20,68,hard,1,8.856
Aberdeen,20,69,absent,1,17.287
Aberdeen,20,70,absent,1,8.288
Aberdeen,20,71,absent,0,9.31
Aberdeen,20,72,absent,1,18.569
Aberdeen,20,73,easy,1,1.412
Aberdeen,20,74,easy,1,1.189
Aberdeen,20,75,absent,0,3.314
Aberdeen,20,76,easy,0,14.399
Aberdeen,20,77,absent,1,15.785
Aberdeen,20,78,hard,1,9.36
Aberdeen,20,79,easy,1,0.758
Aberdeen,20,80,easy,1,0.728
Aberdeen,20,81,absent,1,15.494
Aberdeen,20,82,easy,1,0.67
Aberdeen,20,83,absent,1,10.565
Aberdeen,20,84,hard,0,7.705
Aberdeen,20,85,hard,0,18.238
Aberdeen,20,86,absent,1,14.984
Aberdeen,20,87,absent,0,5.021
Aberdeen,20,88,absent,0,16.082
Aberdeen,20,89,absent,1,7.633
Aberdeen,20,90,hard,1,2.273
Aberdeen,20,91,absent,0,6.427
Aberdeen,20,92,hard,1,7.785
Aberdeen,20,93,absent,1,8.986
Aberdeen,20,94,hard,1,5.155
Aberdeen,20,95,easy,1,1.088
Aberdeen,20,96,absent,0,5.141
Aberdeen,20,97,easy,1,0.69
Aberdeen,20,98,hard,1,13.626
Aberdeen,20,99,absent,0,10.006
Aberdeen,20,100,absent,1,14.444
Aberdeen,20,101,easy,1,0.759
Aberdeen,20,102,absent,1,14.135
Aberdeen,21,7,absent,1,2.472
Aberdeen,21,8,absent,1,2.965
Aberdeen,21,9,absent,1,3.196
Aberdeen,21,10,absent,1,2.88
Aberdeen,21,11,absent,1,2.34
Aberdeen,21,12,easy,1,0.873
Aberdeen,21,13,hard,0,1.669
Aberdeen,21,14,absent,1,1.94
Aberdeen,21,15,absent,1,2.455
Aberdeen,21,16,hard,0,2.214
Aberdeen,21,17,hard,0,2.849
Aberdeen,21,18,absent,0,2.317
Aberdeen,21,19,absent,1,3.618
Aberdeen,21,20,easy,1,0.933
Aberdeen,21,21,absent,1,3.553
Aberdeen,21,22,hard,1,2.554
Aberdeen,21,23,hard,1,1.148
Aberdeen,21,25,absent,1,3.334
Aberdeen,21,26,easy,1,0.749
Aberdeen,21,27,easy,1,0.843
Aberdeen,21,28,easy,1,0.57
Aberdeen,21,29,hard,0,2.759
Aberdeen,21,30,easy,1,0.568
Aberdeen,21,31,absent,1,3.35
Aberdeen,21,32,hard,0,2.272
Aberdeen,21,33,hard,0,2.89
Aberdeen,21,34,absent,1,2.897
Aberdeen,21,35,easy,1,0.673
Aberdeen,21,36,easy,1,0.554
Aberdeen,21,37,absent,1,2.041
Aberdeen,21,38,absent,1,2.602
Aberdeen,21,39,absent,1,2.061
Aberdeen,21,40,absent,1,3.293
Aberdeen,21,41,easy,1,0.651
Aberdeen,21,42,absent,1,4.497
Aberdeen,21,43,hard,0,3.413
Aberdeen,21,44,absent,1,5.939
Aberdeen,21,45,hard,1,1.332
Aberdeen,21,46,easy,1,0.766
Aberdeen,21,47,easy,1,0.449
Aberdeen,21,48,hard,1,5.176
Aberdeen,21,49,hard,0,6.121
Aberdeen,21,50,absent,1,6.675
Aberdeen,21,51,absent,1,5.023
Aberdeen,21,52,easy,1,0.628
Aberdeen,21,53,absent,1,3.812
Aberdeen,21,54,absent,1,5.36
Aberdeen,21,55,hard,1,3.036
Aberdeen,21,56,absent,1,2.745
Aberdeen,21,57,absent,1,5.168
Aberdeen,21,58,absent,1,5.73
Aberdeen,21,59,easy,1,0.78
Aberdeen,21,60,absent,1,5.652
Aberdeen,21,61,hard,0,4.987
Aberdeen,21,62,easy,1,0.927
Aberdeen,21,63,hard,1,0.887
Aberdeen,21,64,hard,1,1.563
Aberdeen,21,65,hard,1,3.624
Aberdeen,21,66,absent,1,4.089
Aberdeen,21,67,hard,1,1.179
Aberdeen,21,68,absent,1,6.878
Aberdeen,21,69,easy,1,0.662
Aberdeen,21,70,absent,1,2.288
Aberdeen,21,71,easy,1,0.651
Aberdeen,21,72,absent,1,3.75
Aberdeen,21,73,absent,1,6.899
Aberdeen,21,74,absent,1,4.827
Aberdeen,21,75,easy,1,0.741
Aberdeen,21,76,easy,1,0.908
Aberdeen,21,77,absent,1,8.432
Aberdeen,21,78,absent,1,6.219
Aberdeen,21,79,absent,1,4.601
Aberdeen,21,80,easy,1,0.721
Aberdeen,21,81,easy,1,0.697
Aberdeen,21,82,absent,1,5.611
Aberdeen,21,83,hard,0,3.985
Aberdeen,21,84,hard,1,1.681
Aberdeen,21,85,absent,1,7.252
Aberdeen,21,86,absent,1,5.974
Aberdeen,21,87,absent,1,5.492
Aberdeen,21,88,hard,1,2.614
Aberdeen,21,89,hard,1,2.086
Aberdeen,21,90,absent,1,6.403
Aberdeen,21,91,absent,1,6.661
Aberdeen,21,92,easy,1,1.112
Aberdeen,21,93,absent,1,4.119
Aberdeen,21,94,absent,1,6.46
Aberdeen,21,95,easy,1,0.656
Aberdeen,21,96,absent,1,6.38
Aberdeen,21,97,easy,1,0.784
Aberdeen,21,98,absent,1,7.42
Aberdeen,21,99,hard,0,5.044
Aberdeen,21,100,hard,1,2.628
Aberdeen,21,101,easy,1,0.62
Aberdeen,21,102,absent,1,6.247
Aberdeen,22,7,absent,0,17.408
Aberdeen,22,8,hard,0,47.728
Aberdeen,22,9,easy,1,2.892
Aberdeen,22,10,absent,1,70.289
Aberdeen,22,11,hard,0,47.012
Aberdeen,22,12,easy,0,77.097
Aberdeen,22,13,absent,1,94.098
Aberdeen,22,14,hard,0,79.651
Aberdeen,22,15,absent,1,73.552
Aberdeen,22,16,easy,1,5.876
Aberdeen,22,17,hard,1,23.701
Aberdeen,22,18,hard,1,22.68
Aberdeen,22,19,easy,1,3.86
Aberdeen,22,20,absent,1,56.922
Aberdeen,22,21,absent,0,8.149
Aberdeen,22,22,absent,0,10.451
Aberdeen,22,23,absent,1,62.745
Aberdeen,22,24,easy,1,4.064
Aberdeen,22,25,easy,1,4.165
Aberdeen,22,26,hard,0,42.544
Aberdeen,22,27,absent,1,61.867
Aberdeen,22,28,absent,1,35.55
Aberdeen,22,29,absent,1,47.071
Aberdeen,22,30,absent,1,45.181
Aberdeen,22,31,absent,1,41.715
Aberdeen,22,32,hard,1,44.471
Aberdeen,22,33,absent,1,46.389
Aberdeen,22,34,absent,1,46.689
Aberdeen,22,35,easy,1,52.765
Aberdeen,22,36,absent,1,47.81
Aberdeen,22,37,easy,1,4.485
Aberdeen,22,38,hard,1,18.938
Aberdeen,22,39,easy,1,2.345
Aberdeen,22,40,absent,1,40.466
Aberdeen,22,41,hard,1,20.673
Aberdeen,22,42,absent,1,43.701
Aberdeen,22,43,easy,1,1.938
Aberdeen,22,44,absent,1,30.759
Aberdeen,22,45,hard,0,34.72
Aberdeen,22,46,absent,1,48.444
Aberdeen,22,47,absent,1,53.085
Aberdeen,22,48,hard,0,40.917
Aberdeen,22,49,easy,1,4.667
Aberdeen,22,50,easy,1,2.471
Aberdeen,22,51,absent,1,49.656
Aberdeen,22,52,absent,1,43.609
Aberdeen,22,53,hard,1,26.665
Aberdeen,22,54,absent,1,45.972
Aberdeen,22,55,absent,1,44.583
Aberdeen,22,56,hard,0,40.964
Aberdeen,22,57,easy,1,3.504
Aberdeen,22,58,hard,0,50.201
Aberdeen,22,59,hard,0,44.725
Aberdeen,22,60,easy,1,4.46
Aberdeen,22,61,absent,0,36.438
Aberdeen,22,62,absent,1,47.508
Aberdeen,22,63,hard,0,52.335
Aberdeen,22,64,absent,1,67.345
Aberdeen,22,65,absent,1,43.33
Aberdeen,22,66,absent,1,41.374
Aberdeen,22,67,absent,1,67.161
Aberdeen,22,68,absent,1,36.051
Aberdeen,22,69,hard,0,38.844
Aberdeen,22,70,hard,0,55.633
Aberdeen,22,71,easy,1,5.221
Aberdeen,22,72,absent,1,33.868
Aberdeen,22,73,easy,1,3.656
Aberdeen,22,74,absent,1,41.671
Aberdeen,22,75,absent,1,44.651
Aberdeen,22,76,easy,1,2.166
Aberdeen,22,77,easy,1,1.741
Aberdeen,22,78,absent,1,51.33
Aberdeen,22,79,easy,1,1.609
Aberdeen,22,80,absent,1,17.074
Aberdeen,22,81,absent,1,10.173
Aberdeen,22,82,hard,0,15.195
Aberdeen,22,83,absent,1,32.316
Aberdeen,22,84,hard,0,27.177
Aberdeen,22,85,absent,1,67.566
Aberdeen,22,86,absent,1,50.897
Aberdeen,22,87,hard,1,33.689
Aberdeen,22,88,easy,1,2.629
Aberdeen,22,89,hard,0,30.723
Aberdeen,22,90,easy,1,2.965
Aberdeen,22,91,absent,1,48.01
Aberdeen,22,92,absent,1,42.631
Aberdeen,22,93,absent,1,31.393
Aberdeen,22,94,absent,1,35.129
Aberdeen,22,95,absent,1,33.353
Aberdeen,22,96,hard,0,25.193
Aberdeen,22,97,absent,1,35.431
Aberdeen,22,98,absent,0,8.776
Aberdeen,22,99,easy,1,1.536
Aberdeen,22,100,hard,0,34.038
Aberdeen,22,101,easy,1,2.493
Aberdeen,22,102,easy,1,1.658
Aberdeen,23,7,easy,1,2.69
Aberdeen,23,8,hard,0,11.321
Aberdeen,23,9,easy,1,8.442
Aberdeen,23,10,hard,0,14.657
Aberdeen,23,11,easy,1,1.025
Aberdeen,23,12,absent,1,23.975
Aberdeen,23,13,absent,0,11.794
Aberdeen,23,14,easy,1,1.141
Aberdeen,23,15,hard,1,6.158
Aberdeen,23,16,absent,1,15.046
Aberdeen,23,17,absent,1,28.206
Aberdeen,23,18,absent,0,19.951
Aberdeen,23,19,absent,1,26.124
Aberdeen,23,20,absent,0,10.224
Aberdeen,23,21,easy,1,1.3
Aberdeen,23,22,absent,1,31.068
Aberdeen,23,23,hard,1,18.079
Aberdeen,23,24,easy,1,3.202
Aberdeen,23,25,absent,1,22.179
Aberdeen,23,26,absent,1,20.877
Aberdeen,23,27,absent,1,27.449
Aberdeen,23,28,absent,0,16.024
Aberdeen,23,29,hard,1,31.352
Aberdeen,23,30,hard,1,2.085
Aberdeen,23,31,absent,1,25.459
Aberdeen,23,32,absent,1,19.458
Aberdeen,23,33,absent,1,18.773
Aberdeen,23,34,absent,1,16.181
Aberdeen,23,35,easy,1,1.368
Aberdeen,23,36,easy,1,1.044
Aberdeen,23,37,hard,0,18.317
Aberdeen,23,38,absent,1,23.374
Aberdeen,23,39,easy,1,1.059
Aberdeen,23,40,absent,1,15.528
Aberdeen,23,41,absent,1,13.463
Aberdeen,23,42,easy,1,1.359
Aberdeen,23,43,absent,1,15.506
Aberdeen,23,44,hard,1,8.014
Aberdeen,23,45,absent,1,14.874
Aberdeen,23,46,absent,1,13.325
Aberdeen,23,47,hard,1,14.92
Aberdeen,23,48,easy,1,1.595
Aberdeen,23,49,hard,1,11.896
Aberdeen,23,50,hard,1,10.646
Aberdeen,23,51,absent,1,24.997
Aberdeen,23,52,easy,1,1.209
Aberdeen,23,53,hard,1,15.037
Aberdeen,23,55,absent,1,14.852
Aberdeen,23,56,easy,1,1.002
Aberdeen,23,57,absent,0,8.86
Aberdeen,23,58,hard,0,23.581
Aberdeen,23,59,absent,1,13.626
Aberdeen,23,61,hard,1,7.398
Aberdeen,23,62,absent,1,18.724
Aberdeen,23,63,easy,1,1.454
Aberdeen,23,64,hard,1,5.539
Aberdeen,23,65,absent,1,17.35
Aberdeen,23,66,easy,1,1.169
Aberdeen,23,67,absent,1,16.931
Aberdeen,23,68,hard,0,17.697
Aberdeen,23,69,absent,1,21.085
Aberdeen,23,70,absent,1,18.573
Aberdeen,23,71,absent,0,24.506
Aberdeen,23,72,absent,1,29.463
Aberdeen,23,73,easy,1,1.037
Aberdeen,23,74,easy,1,0.734
Aberdeen,23,75,absent,1,23.088
Aberdeen,23,76,easy,1,1.164
Aberdeen,23,77,absent,1,23.907
Aberdeen,23,78,hard,1,11.33
Aberdeen,23,79,easy,1,0.997
Aberdeen,23,80,easy,1,1.116
Aberdeen,23,81,absent,1,16.386
Aberdeen,23,82,easy,1,0.845
Aberdeen,23,83,absent,1,19.986
Aberdeen,23,84,hard,1,14.418
Aberdeen,23,85,hard,0,21.247
Aberdeen,23,86,absent,0,17.981
Aberdeen,23,87,absent,1,24.891
Aberdeen,23,88,absent,1,21.304
Aberdeen,23,89,absent,1,23.096
Aberdeen,23,91,absent,1,23.512
Aberdeen,23,92,hard,0,20.09
Aberdeen,23,93,absent,1,27.257
Aberdeen,23,94,hard,1,3.238
Aberdeen,23,95,easy,1,1.254
Aberdeen,23,96,absent,1,22.989
Aberdeen,23,97,easy,1,1.009
Aberdeen,23,98,hard,1,0.852
Aberdeen,23,99,absent,1,21.519
Aberdeen,23,100,absent,1,22.558
Aberdeen,23,101,easy,1,1.009
Aberdeen,23,102,absent,1,15.246
Aberdeen,24,7,absent,1,9.557
Aberdeen,24,8,easy,1,5.06
Aberdeen,24,9,hard,0,7.776
Aberdeen,24,10,hard,1,7.35
Aberdeen,24,11,absent,1,17.33
Aberdeen,24,12,absent,1,16.479
Aberdeen,24,13,hard,0,18.391
Aberdeen,24,14,absent,1,21.748
Aberdeen,24,15,absent,1,19.207
Aberdeen,24,16,absent,1,20.51
Aberdeen,24,17,hard,1,7.796
Aberdeen,24,18,absent,1,18.188
Aberdeen,24,19,easy,1,0.944
Aberdeen,24,20,absent,1,16.854
Aberdeen,24,21,easy,1,0.84
Aberdeen,24,22,hard,1,8.607
Aberdeen,24,23,easy,1,1.026
Aberdeen,24,24,absent,1,18.205
Aberdeen,24,25,absent,1,18.32
Aberdeen,24,26,absent,1,19.086
Aberdeen,24,27,absent,1,21.542
Aberdeen,24,28,hard,1,2.289
Aberdeen,24,29,easy,1,1.205
Aberdeen,24,30,easy,1,1.093
Aberdeen,24,31,absent,1,21.259
Aberdeen,24,32,hard,1,16.63
Aberdeen,24,33,easy,1,0.785
Aberdeen,24,34,absent,1,20.921
Aberdeen,24,35,easy,1,0.899
Aberdeen,24,36,absent,1,25.226
Aberdeen,24,37,absent,1,19.633
Aberdeen,24,38,hard,0,28.595
Aberdeen,24,39,easy,1,0.971
Aberdeen,24,40,absent,1,26.324
Aberdeen,24,41,absent,1,27.115
Aberdeen,24,42,absent,1,26.015
Aberdeen,24,43,absent,1,26.415
Aberdeen,24,44,absent,1,28.589
Aberdeen,24,45,absent,1,27.148
Aberdeen,24,46,easy,1,1.02
Aberdeen,24,47,absent,1,23.653
Aberdeen,24,48,absent,1,25.423
Aberdeen,24,49,hard,1,18.975
Aberdeen,24,50,easy,1,1.36
Aberdeen,24,51,easy,1,1.005
Aberdeen,24,52,hard,1,23.261
Aberdeen,24,53,hard,1,8.205
Aberdeen,24,54,hard,1,14.813
Aberdeen,24,55,absent,1,20.227
Aberdeen,24,56,absent,1,19.066
Aberdeen,24,57,hard,1,5.409
Aberdeen,24,58,easy,1,1.602
Aberdeen,24,59,easy,1,0.933
Aberdeen,24,60,hard,1,5.475
Aberdeen,24,61,hard,0,23.228
Aberdeen,24,62,easy,1,0.978
Aberdeen,24,63,hard,1,3.372
Aberdeen,24,64,absent,1,27.8
Aberdeen,24,65,absent,1,17.032
Aberdeen,24,66,easy,1,0.924
Aberdeen,24,67,hard,1,2.112
Aberdeen,24,68,absent,1,14.916
Aberdeen,24,69,easy,1,0.901
Aberdeen,24,70,absent,1,16.989
Aberdeen,24,71,absent,1,15.849
Aberdeen,24,72,absent,1,20.022
Aberdeen,24,73,absent,1,19.406
Aberdeen,24,74,absent,1,18.245
Aberdeen,24,75,easy,1,0.807
Aberdeen,24,76,absent,1,15.931
Aberdeen,24,77,absent,0,19.348
Aberdeen,24,78,hard,1,15.235
Aberdeen,24,79,absent,1,21.316
Aberdeen,24,80,hard,0,21.32
Aberdeen,24,81,easy,1,1.04
Aberdeen,24,82,absent,1,27.538
Aberdeen,24,83,absent,1,20.595
Aberdeen,24,84,easy,1,1.04
Aberdeen,24,85,hard,1,6.434
Aberdeen,24,86,hard,1,16.291
Aberdeen,24,87,easy,1,1.496
Aberdeen,24,88,absent,1,24.768
Aberdeen,24,89,hard,1,20.916
Aberdeen,24,90,absent,1,24.426
Aberdeen,24,91,absent,1,20.887
Aberdeen,24,92,easy,1,1.063
Aberdeen,24,93,easy,1,0.759
Aberdeen,24,94,hard,1,20.797
Aberdeen,24,95,absent,1,18.499
Aberdeen,24,96,absent,1,19.772
Aberdeen,24,97,absent,1,20.285
Aberdeen,24,98,easy,1,1.16
Aberdeen,24,99,absent,1,18.844
Aberdeen,24,100,hard,0,18.96
Aberdeen,24,101,absent,1,23.337
Aberdeen,24,102,absent,1,22.389
Aberdeen,25,7,easy,1,16.77
Aberdeen,25,8,hard,0,39.507
Aberdeen,25,9,easy,1,16.411
Aberdeen,25,10,hard,1,5.551
Aberdeen,25,11,easy,1,1.204
Aberdeen,25,12,absent,1,57.59
Aberdeen,25,13,absent,1,36.468
Aberdeen,25,14,easy,0,22.396
Aberdeen,25,15,hard,1,6.752
Aberdeen,25,16,absent,1,46.23
Aberdeen,25,17,absent,0,2.968
Aberdeen,25,18,absent,0,4.343
Aberdeen,25,19,absent,1,44.932
Aberdeen,25,20,absent,1,37.456
Aberdeen,25,21,easy,1,8.366
Aberdeen,25,22,absent,1,48.54
Aberdeen,25,23,hard,0,37.587
Aberdeen,25,24,easy,1,4.168
Aberdeen,25,25,absent,1,28.13
Aberdeen,25,26,absent,1,19.247
Aberdeen,25,27,absent,1,22.569
Aberdeen,25,28,absent,1,12.303
Aberdeen,25,29,hard,0,16.794
Aberdeen,25,30,hard,0,31.249
Aberdeen,25,31,absent,1,21.247
Aberdeen,25,32,absent,1,25.104
Aberdeen,25,33,absent,0,7.051
Aberdeen,25,34,absent,1,24.06
Aberdeen,25,35,easy,1,2.778
Aberdeen,25,36,easy,1,1.719
Aberdeen,25,37,hard,0,17.206
Aberdeen,25,38,absent,1,24.484
Aberdeen,25,39,easy,1,3.542
Aberdeen,25,40,absent,1,15.947
Aberdeen,25,41,absent,1,25.9
Aberdeen,25,42,easy,1,3.141
Aberdeen,25,43,absent,1,12.361
Aberdeen,25,44,hard,0,14.087
Aberdeen,25,45,absent,1,47.026
Aberdeen,25,46,absent,1,26.313
Aberdeen,25,47,hard,0,31.986
Aberdeen,25,48,easy,1,1.645
Aberdeen,25,49,hard,0,24.982
Aberdeen,25,50,hard,0,11.65
Aberdeen,25,51,absent,1,40.94
Aberdeen,25,52,easy,1,1.607
Aberdeen,25,53,hard,0,33.435
Aberdeen,25,54,absent,1,30.704
Aberdeen,25,55,absent,1,12.167
Aberdeen,25,56,easy,1,2.471
Aberdeen,25,57,absent,1,12.833
Aberdeen,25,58,hard,0,22.691
Aberdeen,25,59,absent,0,16.65
Aberdeen,25,60,hard,1,38.455
Aberdeen,25,61,hard,0,62.175
Aberdeen,25,62,absent,1,25.322
Aberdeen,25,64,hard,0,25.557
Aberdeen,25,65,absent,1,27.38
Aberdeen,25,66,easy,1,1.496
Aberdeen,25,67,absent,1,37.537
Aberdeen,25,68,hard,0,14.444
Aberdeen,25,69,absent,1,30.544
Aberdeen,25,70,absent,1,20.559
Aberdeen,25,71,absent,1,25.412
Aberdeen,25,72,absent,1,14.923
Aberdeen,25,73,easy,1,2.223
Aberdeen,25,74,easy,1,1.264
Aberdeen,25,75,absent,1,28.501
Aberdeen,25,76,easy,1,1.427
Aberdeen,25,77,absent,1,17.218
Aberdeen,25,78,hard,0,7.889
Aberdeen,25,79,easy,1,1.509
Aberdeen,25,80,easy,1,1.371
Aberdeen,25,81,absent,1,36.951
Aberdeen,25,82,easy,1,1.943
Aberdeen,25,83,absent,1,23.262
Aberdeen,25,84,hard,1,9.846
Aberdeen,25,85,hard,0,27.404
Aberdeen,25,86,absent,1,42.129
Aberdeen,25,87,absent,1,21.037
Aberdeen,25,88,absent,1,13.671
Aberdeen,25,89,absent,1,15.437
Aberdeen,25,90,hard,0,24.069
Aberdeen,25,91,absent,1,20.938
Aberdeen,25,92,hard,0,7.111
Aberdeen,25,93,absent,1,16.542
Aberdeen,25,94,hard,0,3.527
Aberdeen,25,95,easy,1,1.304
Aberdeen,25,96,absent,1,15.633
Aberdeen,25,97,easy,1,1.302
Aberdeen,25,98,hard,0,15.313
Aberdeen,25,99,absent,0,21.381
Aberdeen,25,100,absent,1,17.804
Aberdeen,25,101,easy,1,1.404
Aberdeen,25,102,absent,1,35.714
Aberdeen,26,7,easy,1,9.809
Aberdeen,26,8,hard,1,7.188
Aberdeen,26,9,easy,1,14.715
Aberdeen,26,10,hard,0,12.784
Aberdeen,26,11,easy,1,2.493
Aberdeen,26,12,absent,1,18.039
Aberdeen,26,13,absent,1,13.468
Aberdeen,26,14,easy,1,1.621
Aberdeen,26,15,hard,0,13.256
Aberdeen,26,16,absent,1,16.48
Aberdeen,26,17,absent,1,12.739
Aberdeen,26,18,absent,1,16.153
Aberdeen,26,19,absent,1,16.161
Aberdeen,26,20,absent,1,17.208
Aberdeen,26,21,easy,1,2.395
Aberdeen,26,22,absent,1,16.372
Aberdeen,26,23,hard,0,19.191
Aberdeen,26,24,easy,1,3.346
Aberdeen,26,25,absent,1,23.596
Aberdeen,26,26,absent,1,15.987
Aberdeen,26,27,absent,1,19.138
Aberdeen,26,28,absent,1,16.791
Aberdeen,26,29,hard,0,13.542
Aberdeen,26,30,hard,0,19.155
Aberdeen,26,31,absent,0,28.12
Aberdeen,26,32,absent,1,12.171
Aberdeen,26,33,absent,1,22.084
Aberdeen,26,34,absent,1,21.374
Aberdeen,26,35,easy,1,1.103
Aberdeen,26,36,easy,1,1.093
Aberdeen,26,37,hard,0,26.524
Aberdeen,26,38,absent,1,21.703
Aberdeen,26,39,easy,1,1.125
Aberdeen,26,40,absent,1,17.814
Aberdeen,26,41,absent,1,18.887
Aberdeen,26,42,easy,1,2.644
Aberdeen,26,43,absent,1,28.135
Aberdeen,26,44,hard,0,20.449
Aberdeen,26,45,absent,1,19.035
Aberdeen,26,46,absent,1,19.919
Aberdeen,26,47,hard,1,8.999
Aberdeen,26,48,easy,1,1.089
Aberdeen,26,49,hard,1,16.913
Aberdeen,26,50,hard,1,1.093
Aberdeen,26,51,absent,1,26.02
Aberdeen,26,52,easy,1,0.917
Aberdeen,26,53,hard,1,11.675
Aberdeen,26,54,absent,1,12.269
Aberdeen,26,55,absent,1,20.129
Aberdeen,26,56,easy,1,1.643
Aberdeen,26,57,absent,1,13.647
Aberdeen,26,58,hard,1,4.674
Aberdeen,26,59,absent,1,32.494
Aberdeen,26,60,hard,0,34.805
Aberdeen,26,61,hard,0,20.552
Aberdeen,26,62,absent,1,23.381
Aberdeen,26,63,easy,1,1.829
Aberdeen,26,64,hard,1,19.971
Aberdeen,26,65,absent,1,25.204
Aberdeen,26,66,easy,1,1.211
Aberdeen,26,67,absent,1,26.197
Aberdeen,26,68,hard,0,18.231
Aberdeen,26,69,absent,1,28.222
Aberdeen,26,70,absent,1,34.61
Aberdeen,26,71,absent,1,20.673
Aberdeen,26,72,absent,1,14.401
Aberdeen,26,73,easy,1,1.07
Aberdeen,26,74,easy,1,1.076
Aberdeen,26,75,absent,1,28.261
Aberdeen,26,76,easy,1,0.984
Aberdeen,26,77,absent,1,18.76
Aberdeen,26,78,hard,1,10.802
Aberdeen,26,79,easy,1,1.028
Aberdeen,26,80,easy,1,0.957
Aberdeen,26,81,absent,1,21.324
Aberdeen,26,82,easy,1,0.701
Aberdeen,26,83,absent,1,15.787
Aberdeen,26,84,hard,1,8.903
Aberdeen,26,85,hard,0,28.695
Aberdeen,26,86,absent,1,21.042
Aberdeen,26,87,absent,1,20.251
Aberdeen,26,88,absent,1,19.331
Aberdeen,26,89,absent,1,19.841
Aberdeen,26,90,hard,0,21.092
Aberdeen,26,91,absent,1,17.966
Aberdeen,26,92,hard,0,18.02
Aberdeen,26,93,absent,1,19.896
Aberdeen,26,94,hard,0,23.235
Aberdeen,26,95,easy,1,1.084
Aberdeen,26,96,absent,1,19.845
Aberdeen,26,97,easy,1,0.875
Aberdeen,26,98,hard,1,14.541
Aberdeen,26,99,absent,1,19.568
Aberdeen,26,100,absent,1,15.559
Aberdeen,26,101,easy,1,0.892
Aberdeen,26,102,absent,1,20.611
Aberdeen,27,7,hard,0,6.686
Aberdeen,27,8,absent,1,11.086
Aberdeen,27,9,absent,1,10.039
Aberdeen,27,10,absent,1,8.105
Aberdeen,27,11,hard,0,7.421
Aberdeen,27,12,absent,1,16.268
Aberdeen,27,13,absent,1,12.054
Aberdeen,27,14,absent,0,13.726
Aberdeen,27,15,absent,1,18.18
Aberdeen,27,16,absent,1,15.768
Aberdeen,27,17,hard,1,14.081
Aberdeen,27,18,easy,1,1.117
Aberdeen,27,19,absent,0,19.518
Aberdeen,27,20,easy,1,0.937
Aberdeen,27,21,easy,1,1.478
Aberdeen,27,22,absent,1,23.739
Aberdeen,27,23,easy,1,1.119
Aberdeen,27,24,easy,1,0.993
Aberdeen,27,25,easy,1,0.874
Aberdeen,27,26,absent,1,18.889
Aberdeen,27,27,hard,1,23.005
Aberdeen,27,28,absent,1,29.371
Aberdeen,27,29,hard,1,28.934
Aberdeen,27,30,hard,1,4.073
Aberdeen,27,31,absent,1,24.787
Aberdeen,27,32,hard,0,27.359
Aberdeen,27,33,hard,1,7.306
Aberdeen,27,34,easy,1,0.88
Aberdeen,27,35,absent,1,29.427
Aberdeen,27,36,absent,1,21.896
Aberdeen,27,37,easy,1,0.766
Aberdeen,27,38,easy,1,0.746
Aberdeen,27,39,hard,0,17.303
Aberdeen,27,40,hard,1,3.392
Aberdeen,27,41,absent,1,18.477
Aberdeen,27,42,hard,1,17.805
Aberdeen,27,43,absent,1,22.035
Aberdeen,27,44,easy,1,0.741
Aberdeen,27,45,absent,1,24.306
Aberdeen,27,46,absent,1,20.173
Aberdeen,27,47,hard,1,2.248
Aberdeen,27,48,easy,1,0.782
Aberdeen,27,49,absent,1,18.036
Aberdeen,27,50,absent,1,20.265
Aberdeen,27,51,absent,1,9.824
Aberdeen,27,52,absent,1,5.701
Aberdeen,27,53,absent,1,19.486
Aberdeen,27,54,easy,1,0.72
Aberdeen,27,55,easy,1,0.856
Aberdeen,27,56,easy,1,0.899
Aberdeen,27,57,absent,1,14.228
Aberdeen,27,58,hard,0,17.298
Aberdeen,27,59,easy,1,1.004
Aberdeen,27,60,absent,1,24.396
Aberdeen,27,61,easy,1,0.826
Aberdeen,27,62,absent,1,24.028
Aberdeen,27,63,absent,1,17.808
Aberdeen,27,64,hard,1,3.661
Aberdeen,27,65,absent,1,32.881
Aberdeen,27,66,hard,0,16.588
Aberdeen,27,67,easy,1,0.992
Aberdeen,27,68,absent,1,12.166
Aberdeen,27,69,absent,1,15.89
Aberdeen,27,70,hard,0,13.779
Aberdeen,27,71,hard,1,15.928
Aberdeen,27,72,absent,1,15.021
Aberdeen,27,73,absent,1,18.456
Aberdeen,27,74,absent,1,13.346
Aberdeen,27,75,easy,1,1.271
Aberdeen,27,76,absent,1,22.169
Aberdeen,27,77,hard,0,28.84
Aberdeen,27,78,absent,1,9.92
Aberdeen,27,79,absent,1,18.122
Aberdeen,27,80,absent,1,20.702
Aberdeen,27,81,easy,1,0.974
Aberdeen,27,82,hard,1,12.277
Aberdeen,27,83,hard,0,19.412
Aberdeen,27,84,easy,1,1.135
Aberdeen,27,85,absent,1,20.361
Aberdeen,27,86,absent,1,20.961
Aberdeen,27,87,absent,1,8.587
Aberdeen,27,88,hard,1,20.231
Aberdeen,27,89,easy,1,0.774
Aberdeen,27,90,easy,1,0.733
Aberdeen,27,91,absent,1,8.916
Aberdeen,27,92,absent,1,13.05
Aberdeen,27,93,absent,1,22.552
Aberdeen,27,94,absent,1,13.073
Aberdeen,27,95,hard,0,14.053
Aberdeen,27,96,absent,1,28.778
Aberdeen,27,97,absent,1,20.274
Aberdeen,27,98,hard,0,12.147
Aberdeen,27,99,easy,1,0.697
Aberdeen,27,100,absent,1,20.039
Aberdeen,27,101,hard,0,11.33
Aberdeen,27,102,easy,1,0.651
Aberdeen,28,7,easy,1,1.791
Aberdeen,28,8,hard,1,2.972
Aberdeen,28,9,easy,1,1.593
Aberdeen,28,10,hard,0,12.454
Aberdeen,28,11,easy,1,2.071
Aberdeen,28,12,absent,1,17.226
Aberdeen,28,13,absent,1,11.067
Aberdeen,28,14,easy,1,2.857
Aberdeen,28,15,hard,0,7.475
Aberdeen,28,16,absent,1,11.726
Aberdeen,28,17,absent,0,3.452
Aberdeen,28,18,absent,0,9.184
Aberdeen,28,19,absent,1,15.763
Aberdeen,28,20,absent,0,6.665
Aberdeen,28,21,easy,1,1.744
Aberdeen,28,22,absent,1,17.111
Aberdeen,28,23,hard,1,12.33
Aberdeen,28,24,easy,1,1.672
Aberdeen,28,25,absent,1,10.397
Aberdeen,28,26,absent,1,12.913
Aberdeen,28,27,absent,1,7.164
Aberdeen,28,28,absent,1,8.64
Aberdeen,28,29,hard,1,10.911
Aberdeen,28,30,hard,0,8.637
Aberdeen,28,31,absent,1,9.007
Aberdeen,28,32,absent,1,9.181
Aberdeen,28,33,absent,1,12.162
Aberdeen,28,34,absent,1,6.476
Aberdeen,28,35,easy,1,1.289
Aberdeen,28,36,easy,1,1.023
Aberdeen,28,37,hard,0,8.595
Aberdeen,28,38,absent,1,9.01
Aberdeen,28,39,easy,1,1.313
Aberdeen,28,40,absent,1,7.449
Aberdeen,28,41,absent,1,10.476
Aberdeen,28,42,easy,1,1.084
Aberdeen,28,43,absent,1,11.996
Aberdeen,28,44,hard,0,7.536
Aberdeen,28,45,absent,1,12.058
Aberdeen,28,46,absent,1,10.264
Aberdeen,28,47,hard,0,7.896
Aberdeen,28,48,easy,1,1.339
Aberdeen,28,49,hard,1,4.203
Aberdeen,28,50,hard,1,3.109
Aberdeen,28,51,absent,1,7.581
Aberdeen,28,52,easy,1,0.859
Aberdeen,28,53,hard,1,6.054
Aberdeen,28,54,absent,1,10.408
Aberdeen,28,55,absent,1,7.86
Aberdeen,28,56,easy,1,0.873
Aberdeen,28,57,absent,1,6.939
Aberdeen,28,58,hard,0,9.74
Aberdeen,28,59,absent,1,11.158
Aberdeen,28,60,hard,0,11.625
Aberdeen,28,61,hard,1,5.848
Aberdeen,28,62,absent,1,12.235
Aberdeen,28,63,easy,1,1.27
Aberdeen,28,64,hard,0,10.473
Aberdeen,28,65,absent,1,18.685
Aberdeen,28,66,easy,1,0.962
Aberdeen,28,67,absent,0,9.018
Aberdeen,28,68,hard,0,14.735
Aberdeen,28,69,absent,1,18.31
Aberdeen,28,70,absent,1,5.808
Aberdeen,28,71,absent,1,8.849
Aberdeen,28,72,absent,1,14.428
Aberdeen,28,73,easy,1,1.603
Aberdeen,28,74,easy,1,0.798
Aberdeen,28,75,absent,1,8.363
Aberdeen,28,76,easy,1,1.004
Aberdeen,28,77,absent,1,5.194
Aberdeen,28,78,hard,0,6.318
Aberdeen,28,79,easy,1,1.117
Aberdeen,28,80,easy,1,0.726
Aberdeen,28,81,absent,1,8.038
Aberdeen,28,82,easy,1,0.674
Aberdeen,28,83,absent,1,5.965
Aberdeen,28,84,hard,1,2.025
Aberdeen,28,85,hard,1,6.244
Aberdeen,28,86,absent,1,7.76
Aberdeen,28,87,absent,1,5.232
Aberdeen,28,88,absent,1,7.722
Aberdeen,28,89,absent,1,4.689
Aberdeen,28,90,hard,0,7.197
Aberdeen,28,91,absent,1,8.561
Aberdeen,28,92,hard,1,4.654
Aberdeen,28,93,absent,1,10.141
Aberdeen,28,94,hard,0,8.378
Aberdeen,28,95,easy,1,0.878
Aberdeen,28,96,absent,0,11.438
Aberdeen,28,97,easy,1,0.847
Aberdeen,28,98,hard,0,12.289
Aberdeen,28,99,absent,1,8.523
Aberdeen,28,100,absent,1,8.819
Aberdeen,28,101,easy,1,0.904
Aberdeen,28,102,absent,1,10.021
Aberdeen,29,7,hard,0,3.429
Aberdeen,29,8,easy,0,5.648
Aberdeen,29,9,absent,1,7.058
Aberdeen,29,10,absent,1,6.023
Aberdeen,29,11,absent,1,8.982
Aberdeen,29,12,absent,1,6.144
Aberdeen,29,13,absent,1,6.028
Aberdeen,29,14,absent,1,4.988
Aberdeen,29,15,hard,0,4.728
Aberdeen,29,16,absent,1,12.516
Aberdeen,29,17,hard,0,7.796
Aberdeen,29,18,absent,1,5.857
Aberdeen,29,19,hard,0,6.688
Aberdeen,29,20,absent,1,13.035
Aberdeen,29,21,hard,0,11.19
Aberdeen,29,22,absent,1,17.858
Aberdeen,29,23,easy,1,1.309
Aberdeen,29,24,easy,1,0.964
Aberdeen,29,25,absent,0,7.977
Aberdeen,29,26,absent,1,6.608
Aberdeen,29,27,easy,1,0.997
Aberdeen,29,28,easy,1,0.629
Aberdeen,29,29,hard,1,6.765
Aberdeen,29,30,easy,1,1.432
Aberdeen,29,31,hard,0,5.407
Aberdeen,29,32,absent,1,11.899
Aberdeen,29,33,easy,1,0.856
Aberdeen,29,34,easy,1,0.697
Aberdeen,29,35,absent,1,11.518
Aberdeen,29,36,hard,1,4.141
Aberdeen,29,37,absent,1,10.689
Aberdeen,29,38,absent,1,10.7
Aberdeen,29,39,hard,1,1.07
Aberdeen,29,40,absent,1,11.578
Aberdeen,29,41,easy,1,0.854
Aberdeen,29,42,hard,1,4.849
Aberdeen,29,43,absent,1,8.133
Aberdeen,29,44,easy,1,0.76
Aberdeen,29,45,absent,1,9.788
Aberdeen,29,46,absent,0,9.355
Aberdeen,29,47,easy,1,0.929
Aberdeen,29,48,hard,0,6.883
Aberdeen,29,49,easy,1,0.906
Aberdeen,29,50,absent,1,10.96
Aberdeen,29,51,absent,1,5.515
Aberdeen,29,52,hard,1,5.832
Aberdeen,29,53,absent,1,5.643
Aberdeen,29,54,absent,0,2.342
Aberdeen,29,55,hard,0,5.061
Aberdeen,29,56,easy,1,0.938
Aberdeen,29,57,absent,1,11.108
Aberdeen,29,58,absent,1,9.722
Aberdeen,29,59,hard,1,2.966
Aberdeen,29,60,absent,1,12.629
Aberdeen,29,61,absent,1,11.138
Aberdeen,29,62,absent,1,8.063
Aberdeen,29,63,hard,0,11.312
Aberdeen,29,64,easy,1,0.733
Aberdeen,29,65,easy,1,0.556
Aberdeen,29,66,hard,0,9.998
Aberdeen,29,67,absent,1,12.115
Aberdeen,29,68,easy,1,0.74
Aberdeen,29,69,absent,1,11.837
Aberdeen,29,70,hard,0,8.332
Aberdeen,29,71,absent,0,11.872
Aberdeen,29,72,hard,0,12.641
Aberdeen,29,73,easy,1,0.839
Aberdeen,29,74,absent,1,12.984
Aberdeen,29,75,absent,1,13.571
Aberdeen,29,76,easy,1,0.757
Aberdeen,29,77,absent,1,6.785
Aberdeen,29,78,absent,1,6.54
Aberdeen,29,79,absent,1,7.907
Aberdeen,29,80,easy,1,0.8
Aberdeen,29,82,absent,1,14.849
Aberdeen,29,83,hard,0,7.272
Aberdeen,29,84,hard,1,5.941
Aberdeen,29,85,easy,1,0.768
Aberdeen,29,86,absent,1,18.541
Aberdeen,29,87,absent,1,15.228
Aberdeen,29,88,hard,0,9.729
Aberdeen,29,89,absent,1,14.74
Aberdeen,29,90,easy,1,0.872
Aberdeen,29,91,absent,1,14.393
Aberdeen,29,92,absent,1,9.065
Aberdeen,29,93,hard,0,7.333
Aberdeen,29,94,absent,1,15.86
Aberdeen,29,95,easy,1,0.799
Aberdeen,29,96,easy,1,0.794
Aberdeen,29,97,absent,1,6.876
Aberdeen,29,98,easy,1,0.626
Aberdeen,29,99,absent,1,9.117
Aberdeen,29,100,absent,1,12.946
Aberdeen,29,101,hard,0,5.492
Aberdeen,29,102,absent,1,16.858
Aberdeen,30,7,hard,1,5.358
Aberdeen,30,8,easy,1,3.797
Aberdeen,30,9,absent,1,7.054
Aberdeen,30,10,absent,1,4.716
Aberdeen,30,11,absent,0,4.836
Aberdeen,30,12,absent,1,4.709
Aberdeen,30,13,absent,1,7.664
Aberdeen,30,14,absent,1,6.738
Aberdeen,30,15,hard,0,10.661
Aberdeen,30,16,absent,1,5.564
Aberdeen,30,17,hard,1,5.038
Aberdeen,30,18,absent,1,6.816
Aberdeen,30,19,hard,1,5.217
Aberdeen,30,20,absent,0,5.511
Aberdeen,30,21,hard,1,6.607
Aberdeen,30,22,absent,0,6.461
Aberdeen,30,23,easy,1,1.177
Aberdeen,30,24,easy,1,0.955
Aberdeen,30,25,absent,1,6.037
Aberdeen,30,26,absent,0,7.078
Aberdeen,30,27,easy,1,0.97
Aberdeen,30,28,easy,1,0.756
Aberdeen,30,29,hard,0,6.119
Aberdeen,30,30,easy,1,1.178
Aberdeen,30,31,hard,0,4.271
Aberdeen,30,32,absent,0,6.202
Aberdeen,30,33,easy,1,1.118
Aberdeen,30,34,easy,1,1.032
Aberdeen,30,35,absent,1,5.536
Aberdeen,30,36,hard,0,5.877
Aberdeen,30,37,absent,1,8.832
Aberdeen,30,38,absent,1,9.778
Aberdeen,30,39,hard,1,8.114
Aberdeen,30,40,absent,1,6.696
Aberdeen,30,41,easy,1,0.878
Aberdeen,30,42,hard,1,3.332
Aberdeen,30,43,absent,1,4.997
Aberdeen,30,44,easy,1,1.193
Aberdeen,30,45,absent,1,5.033
Aberdeen,30,46,absent,1,5.629
Aberdeen,30,47,easy,1,1.162
Aberdeen,30,48,hard,0,5.984
Aberdeen,30,49,easy,1,1.264
Aberdeen,30,50,absent,1,7.22
Aberdeen,30,51,absent,0,5.998
Aberdeen,30,52,hard,0,7.869
Aberdeen,30,53,absent,1,7.834
Aberdeen,30,54,absent,0,5.505
Aberdeen,30,55,hard,0,8.215
Aberdeen,30,56,easy,1,0.991
Aberdeen,30,57,absent,0,6.122
Aberdeen,30,58,absent,1,8.337
Aberdeen,30,59,hard,0,13.17
Aberdeen,30,60,absent,1,12.319
Aberdeen,30,61,absent,1,13.95
Aberdeen,30,62,absent,1,11.946
Aberdeen,30,63,hard,0,7.671
Aberdeen,30,64,easy,1,0.789
Aberdeen,30,65,easy,1,0.81
Aberdeen,30,66,hard,0,9.071
Aberdeen,30,67,absent,1,10.669
Aberdeen,30,68,easy,1,0.733
Aberdeen,30,69,absent,1,11.329
Aberdeen,30,70,hard,0,8.48
Aberdeen,30,71,absent,0,9.374
Aberdeen,30,72,hard,0,10.332
Aberdeen,30,73,easy,1,1.382
Aberdeen,30,74,absent,0,11.252
Aberdeen,30,75,absent,0,14.151
Aberdeen,30,76,easy,1,0.893
Aberdeen,30,77,absent,1,21.602
Aberdeen,30,78,absent,0,2.455
Aberdeen,30,79,absent,1,12.182
Aberdeen,30,80,easy,1,0.948
Aberdeen,30,81,hard,0,10.176
Aberdeen,30,82,absent,1,21.69
Aberdeen,30,83,hard,1,14.444
Aberdeen,30,84,hard,0,15.446
Aberdeen,30,85,easy,1,0.762
Aberdeen,30,86,absent,1,20.77
Aberdeen,30,87,absent,1,26.088
Aberdeen,30,88,hard,1,8.058
Aberdeen,30,89,absent,1,21.425
Aberdeen,30,90,easy,0,17.662
Aberdeen,30,91,absent,0,11.01
Aberdeen,30,92,absent,1,13.819
Aberdeen,30,93,hard,1,3.649
Aberdeen,30,94,absent,1,18.971
Aberdeen,30,95,easy,1,1.011
Aberdeen,30,96,easy,1,0.808
Aberdeen,30,97,absent,0,13.457
Aberdeen,30,98,easy,1,0.749
Aberdeen,30,99,absent,1,18.651
Aberdeen,30,100,absent,1,13.146
Aberdeen,30,101,hard,0,13.854
Aberdeen,30,102,absent,1,17.917
Aberdeen,31,7,easy,1,5.128
Aberdeen,31,8,hard,1,3.361
Aberdeen,31,9,easy,1,2.227
Aberdeen,31,10,hard,1,1.68
Aberdeen,31,11,easy,1,4.326
Aberdeen,31,12,absent,0,2.898
Aberdeen,31,13,absent,0,2.52
Aberdeen,31,14,easy,1,4.579
Aberdeen,31,15,hard,1,4.335
Aberdeen,31,16,absent,1,6.636
Aberdeen,31,17,absent,1,4.858
Aberdeen,31,18,absent,0,3.1
Aberdeen,31,19,absent,0,2.775
Aberdeen,31,20,absent,0,3.018
Aberdeen,31,21,easy,1,1.87
Aberdeen,31,22,absent,0,2.998
Aberdeen,31,23,hard,1,1.214
Aberdeen,31,24,easy,1,1.644
Aberdeen,31,26,absent,0,4.044
Aberdeen,31,27,absent,0,2.221
Aberdeen,31,28,absent,0,6.19
Aberdeen,31,29,hard,0,3.569
Aberdeen,31,30,hard,1,6.706
Aberdeen,31,31,absent,0,2.7
Aberdeen,31,32,absent,0,3.098
Aberdeen,31,33,absent,0,3.736
Aberdeen,31,34,absent,0,3.023
Aberdeen,31,35,easy,0,5.931
Aberdeen,31,36,easy,0,7.55
Aberdeen,31,37,hard,1,3.676
Aberdeen,31,38,absent,0,2.031
Aberdeen,31,39,easy,1,3.215
Aberdeen,31,40,absent,0,1.689
Aberdeen,31,41,absent,0,5.17
Aberdeen,31,42,easy,1,4.908
Aberdeen,31,43,absent,0,3.716
Aberdeen,31,44,hard,1,1.985
Aberdeen,31,45,absent,0,5.113
Aberdeen,31,46,absent,0,5.778
Aberdeen,31,47,hard,1,3.782
Aberdeen,31,48,easy,1,2.136
Aberdeen,31,49,hard,1,4.531
Aberdeen,31,50,hard,1,3.49
Aberdeen,31,51,absent,0,8.647
Aberdeen,31,52,easy,1,2.139
Aberdeen,31,53,hard,1,2.048
Aberdeen,31,54,absent,0,5.404
Aberdeen,31,55,absent,1,7.777
Aberdeen,31,56,easy,0,6.236
Aberdeen,31,57,absent,1,6.796
Aberdeen,31,58,hard,0,5.942
Aberdeen,31,59,absent,1,7.199
Aberdeen,31,60,hard,0,10.587
Aberdeen,31,61,hard,1,15.439
Aberdeen,31,62,absent,1,8.974
Aberdeen,31,63,easy,0,6.397
Aberdeen,31,64,hard,0,8.096
Aberdeen,31,65,absent,1,12.464
Aberdeen,31,66,easy,0,9.898
Aberdeen,31,67,absent,1,12.073
Aberdeen,31,68,hard,0,13.326
Aberdeen,31,69,absent,1,9.532
Aberdeen,31,70,absent,0,9.546
Aberdeen,31,71,absent,1,16.835
Aberdeen,31,72,absent,1,13.868
Aberdeen,31,73,easy,1,3.367
Aberdeen,31,74,easy,1,3.684
Aberdeen,31,75,absent,1,12.576
Aberdeen,31,76,easy,1,1.948
Aberdeen,31,77,absent,1,9.352
Aberdeen,31,78,hard,0,10.418
Aberdeen,31,79,easy,1,2.358
Aberdeen,31,80,easy,1,1.548
Aberdeen,31,81,absent,1,7.617
Aberdeen,31,82,easy,1,1.054
Aberdeen,31,83,absent,1,6.599
Aberdeen,31,84,hard,0,4.896
Aberdeen,31,85,hard,0,8.109
Aberdeen,31,86,absent,1,14.969
Aberdeen,31,87,absent,1,13.858
Aberdeen,31,88,absent,1,18.473
Aberdeen,31,89,absent,1,11.179
Aberdeen,31,90,hard,0,13.269
Aberdeen,31,91,absent,1,13.27
Aberdeen,31,92,hard,0,8.901
Aberdeen,31,93,absent,1,13.551
Aberdeen,31,94,hard,0,17.95
Aberdeen,31,95,easy,1,6.494
Aberdeen,31,96,absent,1,16.533
Aberdeen,31,97,easy,1,2.089
Aberdeen,31,98,hard,0,16.028
Aberdeen,31,99,absent,1,13.623
Aberdeen,31,100,absent,1,12.873
Aberdeen,31,101,easy,1,1.857
Aberdeen,31,102,absent,1,27.459
Aberdeen,32,7,easy,1,0.774
Aberdeen,32,8,hard,1,1.85
Aberdeen,32,9,absent,0,4.326
Aberdeen,32,10,easy,1,0.998
Aberdeen,32,11,absent,1,9.984
Aberdeen,32,12,hard,0,10.685
Aberdeen,32,13,absent,1,13.579
Aberdeen,32,14,easy,1,0.935
Aberdeen,32,15,easy,1,0.819
Aberdeen,32,16,absent,0,10.265
Aberdeen,32,17,easy,1,0.851
Aberdeen,32,18,absent,1,14.598
Aberdeen,32,19,absent,0,1.823
Aberdeen,32,20,hard,0,16.804
Aberdeen,32,21,easy,1,0.696
Aberdeen,32,22,absent,0,9.061
Aberdeen,32,23,absent,1,15.8
Aberdeen,32,24,hard,1,2.056
Aberdeen,32,25,absent,1,11.824
Aberdeen,32,26,absent,1,15.387
Aberdeen,32,27,absent,1,14.129
Aberdeen,32,28,hard,1,6.325
Aberdeen,32,29,hard,1,4.181
Aberdeen,32,30,absent,0,13.552
Aberdeen,32,31,hard,1,14.546
Aberdeen,32,32,hard,1,1.473
Aberdeen,32,33,easy,1,1.022
Aberdeen,32,34,absent,1,11.148
Aberdeen,32,35,easy,1,0.831
Aberdeen,32,36,absent,0,9.775
Aberdeen,32,37,hard,1,11.787
Aberdeen,32,38,absent,1,15.057
Aberdeen,32,39,absent,1,12.44
Aberdeen,32,40,absent,1,16.622
Aberdeen,32,41,absent,1,9.249
Aberdeen,32,42,absent,1,12.032
Aberdeen,32,43,hard,1,2.974
Aberdeen,32,44,absent,1,11.209
Aberdeen,32,45,hard,1,7.789
Aberdeen,32,46,absent,0,9.319
Aberdeen,32,47,hard,0,15.839
Aberdeen,32,48,absent,1,17.677
Aberdeen,32,49,absent,1,13.838
Aberdeen,32,50,easy,1,1.179
Aberdeen,32,51,easy,1,1.125
Aberdeen,32,52,easy,1,1.257
Aberdeen,32,53,easy,1,0.915
Aberdeen,32,54,absent,1,13.841
Aberdeen,32,55,easy,1,0.978
Aberdeen,32,57,easy,1,1.683
Aberdeen,32,58,absent,1,11.607
Aberdeen,32,59,absent,1,12.335
Aberdeen,32,60,absent,1,14.005
Aberdeen,32,61,absent,0,6.647
Aberdeen,32,62,absent,1,17.126
Aberdeen,32,63,absent,1,16.198
Aberdeen,32,64,hard,1,3.74
Aberdeen,32,65,absent,0,7.723
Aberdeen,32,66,hard,1,7.074
Aberdeen,32,67,hard,0,12.958
Aberdeen,32,68,hard,0,13.997
Aberdeen,32,69,absent,1,19.601
Aberdeen,32,70,hard,1,3.7
Aberdeen,32,71,absent,0,15.034
Aberdeen,32,72,absent,1,18.744
Aberdeen,32,73,absent,0,3.65
Aberdeen,32,74,easy,1,1.02
Aberdeen,32,75,easy,1,1.195
Aberdeen,32,76,easy,1,1.664
Aberdeen,32,77,easy,1,0.834
Aberdeen,32,78,absent,0,25.454
Aberdeen,32,79,absent,1,9.64
Aberdeen,32,80,easy,1,0.942
Aberdeen,32,81,absent,1,12.845
Aberdeen,32,82,absent,1,20.006
Aberdeen,32,83,absent,1,12.203
Aberdeen,32,84,easy,1,0.857
Aberdeen,32,85,hard,1,4.741
Aberdeen,32,86,absent,1,15.19
Aberdeen,32,87,absent,1,14.346
Aberdeen,32,88,easy,1,0.866
Aberdeen,32,89,absent,1,14.417
Aberdeen,32,90,hard,0,10.281
Aberdeen,32,91,hard,1,5.032
Aberdeen,32,92,absent,1,13.005
Aberdeen,32,93,easy,1,1.174
Aberdeen,32,94,absent,1,13.461
Aberdeen,32,95,hard,0,9.705
Aberdeen,32,96,absent,1,10.898
Aberdeen,32,97,absent,1,15.272
Aberdeen,32,98,absent,1,13.489
Aberdeen,32,99,easy,1,1.196
Aberdeen,32,100,hard,0,12.237
Aberdeen,32,101,hard,0,15.322
Aberdeen,32,102,easy,1,0.776
Aberdeen,33,7,easy,1,1.062
Aberdeen,33,8,hard,0,14.686
Aberdeen,33,9,easy,1,3.078
Aberdeen,33,10,hard,0,7.351
Aberdeen,33,11,easy,1,2.278
Aberdeen,33,12,absent,1,23.977
Aberdeen,33,13,absent,1,19.759
Aberdeen,33,14,easy,1,3.385
Aberdeen,33,15,hard,1,19.304
Aberdeen,33,16,absent,1,23.611
Aberdeen,33,17,absent,1,14.272
Aberdeen,33,18,absent,1,33.826
Aberdeen,33,19,absent,1,30.906
Aberdeen,33,20,absent,1,43.397
Aberdeen,33,21,easy,1,1.951
Aberdeen,33,22,absent,1,9.354
Aberdeen,33,23,hard,0,10.756
Aberdeen,33,24,easy,1,2.575
Aberdeen,33,25,absent,1,20.28
Aberdeen,33,26,absent,1,14.8
Aberdeen,33,27,absent,1,16.57
Aberdeen,33,28,absent,1,15.351
Aberdeen,33,29,hard,0,15.7
Aberdeen,33,30,hard,0,24.346
Aberdeen,33,31,absent,1,17.732
Aberdeen,33,32,absent,1,21.307
Aberdeen,33,33,absent,1,20.436
Aberdeen,33,34,absent,1,11.299
Aberdeen,33,35,easy,1,6.584
Aberdeen,33,36,easy,1,0.989
Aberdeen,33,37,hard,0,20.021
Aberdeen,33,38,absent,1,14.275
Aberdeen,33,39,easy,1,1.468
Aberdeen,33,40,absent,1,19.287
Aberdeen,33,41,absent,1,19.42
Aberdeen,33,42,easy,1,1.167
Aberdeen,33,43,absent,1,22.335
Aberdeen,33,44,hard,0,18.307
Aberdeen,33,45,absent,1,9.665
Aberdeen,33,46,absent,1,13.813
Aberdeen,33,47,hard,1,17.73
Aberdeen,33,48,easy,1,0.969
Aberdeen,33,49,hard,0,14.685
Aberdeen,33,50,hard,0,15.009
Aberdeen,33,51,absent,1,21.717
Aberdeen,33,52,easy,1,1.537
Aberdeen,33,53,hard,0,22.694
Aberdeen,33,54,absent,1,19.53
Aberdeen,33,55,absent,1,24.922
Aberdeen,33,56,easy,1,1.777
Aberdeen,33,57,absent,1,11.278
Aberdeen,33,58,hard,0,21.216
Aberdeen,33,59,absent,1,39.766
Aberdeen,33,60,hard,0,24.13
Aberdeen,33,61,hard,1,15.613
Aberdeen,33,62,absent,1,32.089
Aberdeen,33,63,easy,1,2.429
Aberdeen,33,64,hard,0,25.652
Aberdeen,33,65,absent,1,20.607
Aberdeen,33,66,easy,1,1.198
Aberdeen,33,67,absent,1,14.45
Aberdeen,33,68,hard,0,20.517
Aberdeen,33,69,absent,1,40.258
Aberdeen,33,70,absent,1,29.444
Aberdeen,33,71,absent,1,34.287
Aberdeen,33,72,absent,1,40.11
Aberdeen,33,73,easy,1,1.422
Aberdeen,33,74,easy,1,0.949
Aberdeen,33,75,absent,1,27.483
Aberdeen,33,76,easy,1,1.31
Aberdeen,33,77,absent,1,30.847
Aberdeen,33,78,hard,0,36.118
Aberdeen,33,79,easy,1,1.102
Aberdeen,33,80,easy,1,0.969
Aberdeen,33,81,absent,1,14.637
Aberdeen,33,82,easy,1,1.371
Aberdeen,33,83,absent,1,35.658
Aberdeen,33,84,hard,1,21.016
Aberdeen,33,85,hard,0,25.382
Aberdeen,33,86,absent,1,35.429
Aberdeen,33,87,absent,1,43.643
Aberdeen,33,88,absent,1,41.405
Aberdeen,33,89,absent,1,35.167
Aberdeen,33,90,hard,0,43.459
Aberdeen,33,91,absent,1,36.335
Aberdeen,33,92,hard,0,30.369
Aberdeen,33,93,absent,1,31.006
Aberdeen,33,94,hard,0,30.159
Aberdeen,33,95,easy,1,1.3
Aberdeen,33,96,absent,1,29.622
Aberdeen,33,97,easy,1,0.999
Aberdeen,33,98,hard,0,14.728
Aberdeen,33,99,absent,1,18.915
Aberdeen,33,100,absent,1,18.018
Aberdeen,33,101,easy,1,0.911
Aberdeen,33,102,absent,1,12.565
Aberdeen,34,7,easy,1,1.139
Aberdeen,34,8,hard,1,2.941
Aberdeen,34,9,easy,1,1.435
Aberdeen,34,10,hard,1,3.333
Aberdeen,34,11,easy,1,2.446
Aberdeen,34,12,absent,0,3.015
Aberdeen,34,13,absent,0,2.068
Aberdeen,34,14,easy,1,2.663
Aberdeen,34,15,hard,0,6.142
Aberdeen,34,16,absent,0,5.985
Aberdeen,34,17,absent,1,5.732
Aberdeen,34,18,absent,1,5.212
Aberdeen,34,19,absent,1,5.062
Aberdeen,34,20,absent,0,5.196
Aberdeen,34,21,easy,1,1.005
Aberdeen,34,22,absent,1,5.236
Aberdeen,34,23,hard,0,6.38
Aberdeen,34,24,easy,1,1.84
Aberdeen,34,25,absent,1,4.308
Aberdeen,34,26,absent,1,4.549
Aberdeen,34,27,absent,0,6.515
Aberdeen,34,28,absent,1,4.625
Aberdeen,34,29,hard,0,4.863
Aberdeen,34,30,hard,0,6.526
Aberdeen,34,31,absent,0,3.493
Aberdeen,34,32,absent,1,3.511
Aberdeen,34,33,absent,1,5.739
Aberdeen,34,34,absent,1,5.788
Aberdeen,34,35,easy,1,0.888
Aberdeen,34,36,easy,1,0.913
Aberdeen,34,37,hard,1,6.188
Aberdeen,34,38,absent,0,3.972
Aberdeen,34,39,easy,1,2.816
Aberdeen,34,40,absent,0,4.372
Aberdeen,34,41,absent,1,6.159
Aberdeen,34,42,easy,1,0.95
Aberdeen,34,43,absent,0,3.874
Aberdeen,34,44,hard,0,4.718
Aberdeen,34,45,absent,1,6.655
Aberdeen,34,46,absent,1,5.998
Aberdeen,34,47,hard,0,6.298
Aberdeen,34,48,easy,1,0.8
Aberdeen,34,49,hard,1,5.906
Aberdeen,34,50,hard,1,4.139
Aberdeen,34,51,absent,1,5.383
Aberdeen,34,52,easy,1,0.988
Aberdeen,34,53,hard,0,4.491
Aberdeen,34,54,absent,1,5.161
Aberdeen,34,55,absent,0,3.84
Aberdeen,34,56,easy,1,0.957
Aberdeen,34,57,absent,0,5.064
Aberdeen,34,58,hard,0,3.928
Aberdeen,34,59,absent,0,5.446
Aberdeen,34,60,hard,0,5.029
Aberdeen,34,61,hard,0,9.193
Aberdeen,34,62,absent,0,12.564
Aberdeen,34,63,easy,0,0.878
Aberdeen,34,64,hard,1,7.141
Aberdeen,34,65,absent,1,7.97
Aberdeen,34,66,easy,1,1.092
Aberdeen,34,67,absent,0,7.133
Aberdeen,34,68,hard,0,6.287
Aberdeen,34,69,absent,1,6.085
Aberdeen,34,70,absent,1,6.12
Aberdeen,34,71,absent,0,2.919
Aberdeen,34,72,absent,1,5.477
Aberdeen,34,73,easy,1,1.354
Aberdeen,34,74,easy,1,0.903
Aberdeen,34,75,absent,1,7.964
Aberdeen,34,76,easy,1,1.455
Aberdeen,34,77,absent,1,6.409
Aberdeen,34,78,hard,0,6.231
Aberdeen,34,79,easy,1,1.27
Aberdeen,34,80,easy,1,0.972
Aberdeen,34,81,absent,1,5.89
Aberdeen,34,82,easy,1,0.952
Aberdeen,34,83,absent,1,3.146
Aberdeen,34,84,hard,1,2.95
Aberdeen,34,85,hard,1,5.784
Aberdeen,34,86,absent,0,4.132
Aberdeen,34,87,absent,0,5.779
Aberdeen,34,88,absent,1,6.482
Aberdeen,34,89,absent,1,5.679
Aberdeen,34,90,hard,0,6.32
Aberdeen,34,91,absent,0,4.334
Aberdeen,34,92,hard,1,4.947
Aberdeen,34,93,absent,1,7.357
Aberdeen,34,94,hard,1,4.661
Aberdeen,34,95,easy,1,1.31
Aberdeen,34,96,absent,0,6.567
Aberdeen,34,97,easy,1,1.274
Aberdeen,34,98,hard,1,3.473
Aberdeen,34,99,absent,1,6.315
Aberdeen,34,100,absent,1,6.483
Aberdeen,34,101,easy,1,0.749
Aberdeen,34,102,absent,1,4.738
Aberdeen,35,7,easy,1,9.529
Aberdeen,35,8,easy,1,1.726
Aberdeen,35,9,absent,0,26.195
Aberdeen,35,10,absent,1,37.432
Aberdeen,35,12,absent,1,35.478
Aberdeen,35,13,easy,1,1.607
Aberdeen,35,14,hard,0,22.462
Aberdeen,35,15,hard,1,25.701
Aberdeen,35,16,absent,1,17.945
Aberdeen,35,17,absent,1,20.321
Aberdeen,35,18,absent,1,17.143
Aberdeen,35,19,absent,1,22.502
Aberdeen,35,20,absent,1,27.895
Aberdeen,35,21,easy,1,1.58
Aberdeen,35,22,hard,1,5.325
Aberdeen,35,23,absent,1,15.851
Aberdeen,35,24,absent,1,12.039
Aberdeen,35,25,easy,1,1.042
Aberdeen,35,26,absent,1,7.28
Aberdeen,35,27,hard,0,15.619
Aberdeen,35,28,absent,1,14.816
Aberdeen,35,29,hard,0,14.747
Aberdeen,35,30,easy,1,1.105
Aberdeen,35,31,easy,1,0.913
Aberdeen,35,32,absent,1,12.082
Aberdeen,35,33,easy,1,0.951
Aberdeen,35,34,absent,1,6.137
Aberdeen,35,35,absent,1,18.427
Aberdeen,35,36,absent,1,14.592
Aberdeen,35,37,absent,1,23.149
Aberdeen,35,38,absent,1,23.601
Aberdeen,35,39,absent,1,16.658
Aberdeen,35,40,absent,1,7.618
Aberdeen,35,41,easy,1,0.949
Aberdeen,35,42,hard,0,6.649
Aberdeen,35,43,hard,1,2.594
Aberdeen,35,44,easy,1,0.915
Aberdeen,35,45,hard,0,3.461
Aberdeen,35,46,absent,1,9.587
Aberdeen,35,47,absent,1,9.686
Aberdeen,35,48,easy,1,0.855
Aberdeen,35,49,hard,0,14.021
Aberdeen,35,50,hard,0,12.342
Aberdeen,35,51,hard,0,8.57
Aberdeen,35,52,easy,1,0.606
Aberdeen,35,53,absent,1,11.4
Aberdeen,35,54,absent,1,6.703
Aberdeen,35,55,absent,1,6.219
Aberdeen,35,56,absent,1,7
Aberdeen,35,57,hard,0,8.767
Aberdeen,35,58,absent,1,8.111
Aberdeen,35,59,easy,1,0.843
Aberdeen,35,60,easy,1,0.899
Aberdeen,35,61,absent,1,5.689
Aberdeen,35,63,absent,1,4.317
Aberdeen,35,64,easy,1,0.879
Aberdeen,35,65,absent,1,5.145
Aberdeen,35,66,easy,1,0.689
Aberdeen,35,67,absent,1,4.447
Aberdeen,35,68,hard,1,6.931
Aberdeen,35,69,easy,1,0.989
Aberdeen,35,70,hard,0,3.152
Aberdeen,35,71,absent,1,8.798
Aberdeen,35,72,absent,1,5.706
Aberdeen,35,73,absent,1,6.999
Aberdeen,35,74,absent,1,6.83
Aberdeen,35,75,hard,0,3.906
Aberdeen,35,76,hard,0,5.781
Aberdeen,35,77,hard,1,3.632
Aberdeen,35,78,absent,1,10.095
Aberdeen,35,79,absent,1,5.244
Aberdeen,35,80,absent,1,5.799
Aberdeen,35,81,hard,1,3.446
Aberdeen,35,82,hard,1,4.358
Aberdeen,35,83,absent,1,3.417
Aberdeen,35,84,absent,1,7.927
Aberdeen,35,85,easy,1,0.799
Aberdeen,35,86,easy,1,0.738
Aberdeen,35,87,easy,1,0.574
Aberdeen,35,88,absent,1,4.847
Aberdeen,35,89,hard,0,6.045
Aberdeen,35,90,easy,1,0.597
Aberdeen,35,91,easy,1,0.535
Aberdeen,35,92,absent,1,6.255
Aberdeen,35,93,hard,0,4.451
Aberdeen,35,94,absent,1,5.386
Aberdeen,35,95,absent,0,6.095
Aberdeen,35,96,hard,0,8.101
Aberdeen,35,97,absent,1,8.136
Aberdeen,35,98,absent,1,6.614
Aberdeen,35,99,absent,1,10.237
Aberdeen,35,100,absent,1,8.377
Aberdeen,35,101,easy,1,0.734
Aberdeen,35,102,hard,0,6.838
Aberdeen,36,7,hard,1,6.234
Aberdeen,36,8,absent,1,6.371
Aberdeen,36,9,absent,1,4.391
Aberdeen,36,10,absent,1,4.503
Aberdeen,36,11,easy,0,4.813
Aberdeen,36,12,absent,1,5.375
Aberdeen,36,13,absent,1,5.643
Aberdeen,36,14,easy,1,0.805
Aberdeen,36,15,hard,0,5.312
Aberdeen,36,16,absent,1,5.971
Aberdeen,36,17,absent,1,5.087
Aberdeen,36,18,absent,1,5.694
Aberdeen,36,19,easy,0,5.048
Aberdeen,36,20,hard,0,6.2
Aberdeen,36,21,hard,0,7.446
Aberdeen,36,22,absent,1,7.985
Aberdeen,36,23,absent,1,6.368
Aberdeen,36,24,absent,1,7.17
Aberdeen,36,25,hard,1,1.374
Aberdeen,36,26,easy,1,0.938
Aberdeen,36,27,absent,1,7.895
Aberdeen,36,28,easy,1,0.669
Aberdeen,36,29,hard,0,6.315
Aberdeen,36,30,easy,1,0.895
Aberdeen,36,31,absent,1,6.215
Aberdeen,36,32,absent,1,6.584
Aberdeen,36,33,absent,1,4.765
Aberdeen,36,34,absent,1,5.364
Aberdeen,36,35,hard,0,5.374
Aberdeen,36,36,easy,0,8.471
Aberdeen,36,37,hard,0,5.99
Aberdeen,36,38,absent,1,8.982
Aberdeen,36,39,hard,0,7.101
Aberdeen,36,40,absent,1,5.444
Aberdeen,36,41,hard,0,6.698
Aberdeen,36,42,hard,0,7.544
Aberdeen,36,43,absent,1,8.934
Aberdeen,36,44,absent,1,7.159
Aberdeen,36,45,absent,1,7.671
Aberdeen,36,46,absent,1,7.697
Aberdeen,36,47,easy,1,0.928
Aberdeen,36,48,absent,1,7.712
Aberdeen,36,49,easy,1,0.829
Aberdeen,36,50,absent,1,7.273
Aberdeen,36,51,hard,1,5.973
Aberdeen,36,52,easy,1,1.582
Aberdeen,36,53,easy,1,0.826
Aberdeen,36,54,easy,1,0.604
Aberdeen,36,55,easy,1,0.66
Aberdeen,36,56,hard,0,8.976
Aberdeen,36,57,absent,1,7.069
Aberdeen,36,58,hard,1,0.59
Aberdeen,36,59,absent,1,10.026
Aberdeen,36,60,absent,1,6.794
Aberdeen,36,61,absent,1,5.872
Aberdeen,36,62,easy,1,0.712
Aberdeen,36,63,hard,0,8.639
Aberdeen,36,64,absent,1,3.909
Aberdeen,36,65,absent,1,8.396
Aberdeen,36,66,easy,1,0.705
Aberdeen,36,67,absent,1,7.231
Aberdeen,36,68,easy,1,0.602
Aberdeen,36,69,hard,0,7.644
Aberdeen,36,70,absent,1,8.019
Aberdeen,36,71,hard,1,2.936
Aberdeen,36,72,absent,1,7.903
Aberdeen,36,73,absent,1,7.176
Aberdeen,36,74,easy,1,0.564
Aberdeen,36,75,absent,1,8.86
Aberdeen,36,76,easy,1,1.144
Aberdeen,36,77,hard,0,8.144
Aberdeen,36,78,absent,1,6.241
Aberdeen,36,79,absent,1,6.098
Aberdeen,36,80,easy,1,0.612
Aberdeen,36,81,hard,1,3.627
Aberdeen,36,82,hard,0,6.539
Aberdeen,36,83,hard,1,3.567
Aberdeen,36,84,easy,1,0.614
Aberdeen,36,85,absent,1,5.53
Aberdeen,36,86,absent,1,5.128
Aberdeen,36,87,easy,1,0.525
Aberdeen,36,88,easy,1,0.6
Aberdeen,36,89,absent,1,5.596
Aberdeen,36,90,hard,1,4.269
Aberdeen,36,91,absent,1,2.563
Aberdeen,36,92,absent,1,4.305
Aberdeen,36,93,hard,1,1.582
Aberdeen,36,94,absent,1,5.375
Aberdeen,36,95,absent,1,5.695
Aberdeen,36,96,absent,1,5.697
Aberdeen,36,97,absent,1,5.724
Aberdeen,36,98,absent,1,4.445
Aberdeen,36,99,easy,1,0.845
Aberdeen,36,100,easy,1,2.927
Aberdeen,36,101,hard,0,8.127
Aberdeen,36,102,absent,1,6.056
Aberdeen,37,7,easy,1,0.809
Aberdeen,37,8,hard,1,1.21
Aberdeen,37,9,easy,1,0.76
Aberdeen,37,10,hard,0,1.461
Aberdeen,37,12,absent,0,0.801
Aberdeen,37,13,absent,0,1.829
Aberdeen,37,14,easy,0,0.837
Aberdeen,37,15,hard,1,0.339
Aberdeen,37,16,absent,0,0.629
Aberdeen,37,17,absent,0,1.297
Aberdeen,37,18,absent,1,0.85
Aberdeen,37,19,absent,1,0.63
Aberdeen,37,20,absent,0,0.752
Aberdeen,37,21,easy,0,1.178
Aberdeen,37,22,absent,0,0.499
Aberdeen,37,23,hard,0,2.367
Aberdeen,37,24,easy,0,2.521
Aberdeen,37,25,absent,0,0.84
Aberdeen,37,26,absent,0,0.903
Aberdeen,37,27,absent,0,1.008
Aberdeen,37,28,absent,1,3.791
Aberdeen,37,29,hard,1,2.612
Aberdeen,37,30,hard,1,1.584
Aberdeen,37,31,absent,1,1.643
Aberdeen,37,32,absent,1,2.343
Aberdeen,37,33,absent,0,1.986
Aberdeen,37,34,absent,0,1.663
Aberdeen,37,35,easy,1,3.525
Aberdeen,37,36,easy,1,2.048
Aberdeen,37,37,hard,1,1.51
Aberdeen,37,38,absent,0,2.614
Aberdeen,37,39,easy,0,1.211
Aberdeen,37,40,absent,0,2.607
Aberdeen,37,41,absent,1,4.832
Aberdeen,37,42,easy,1,2.854
Aberdeen,37,43,absent,1,3.484
Aberdeen,37,44,hard,0,2.727
Aberdeen,37,45,absent,0,2.887
Aberdeen,37,46,absent,1,2.576
Aberdeen,37,47,hard,0,4.253
Aberdeen,37,48,easy,1,5.59
Aberdeen,37,49,hard,1,3.171
Aberdeen,37,50,hard,0,5.458
Aberdeen,37,51,absent,0,2.362
Aberdeen,37,52,easy,0,2.781
Aberdeen,37,53,hard,1,3.21
Aberdeen,37,54,absent,0,4.257
Aberdeen,37,55,absent,0,4.088
Aberdeen,37,56,easy,1,1.736
Aberdeen,37,57,absent,1,4.413
Aberdeen,37,58,hard,0,6.591
Aberdeen,37,59,absent,0,4.472
Aberdeen,37,60,hard,0,1.572
Aberdeen,37,61,hard,0,4.863
Aberdeen,37,62,absent,1,7.697
Aberdeen,37,63,easy,1,1.828
Aberdeen,37,64,hard,0,5.122
Aberdeen,37,65,absent,1,7.151
Aberdeen,37,66,easy,1,1.242
Aberdeen,37,67,absent,1,5.926
Aberdeen,37,68,hard,0,6.425
Aberdeen,37,69,absent,1,4.655
Aberdeen,37,70,absent,0,5.002
Aberdeen,37,71,absent,0,7.188
Aberdeen,37,72,absent,1,6.557
Aberdeen,37,73,easy,1,1.926
Aberdeen,37,74,easy,1,0.755
Aberdeen,37,75,absent,1,4.373
Aberdeen,37,76,easy,1,2.595
Aberdeen,37,77,absent,0,4.058
Aberdeen,37,78,hard,0,4.975
Aberdeen,37,79,easy,1,1.219
Aberdeen,37,80,easy,1,1.163
Aberdeen,37,81,absent,1,3.721
Aberdeen,37,82,easy,1,0.965
Aberdeen,37,83,absent,1,3.339
Aberdeen,37,84,hard,0,5.859
Aberdeen,37,85,hard,0,3.908
Aberdeen,37,86,absent,1,2.59
Aberdeen,37,87,absent,1,5.732
Aberdeen,37,88,absent,1,3.606
Aberdeen,37,89,absent,0,3.289
Aberdeen,37,90,hard,0,3.134
Aberdeen,37,91,absent,0,3.616
Aberdeen,37,92,hard,0,4.844
Aberdeen,37,93,absent,1,8.318
Aberdeen,37,94,hard,0,4.334
Aberdeen,37,95,easy,1,1.184
Aberdeen,37,96,absent,1,3.926
Aberdeen,37,97,easy,1,1.367
Aberdeen,37,98,hard,0,2.865
Aberdeen,37,99,absent,1,8.322
Aberdeen,37,100,absent,1,2.602
Aberdeen,37,101,easy,1,2.368
Aberdeen,37,102,absent,1,3.129
Aberdeen,38,7,easy,1,1.778
Aberdeen,38,8,hard,0,21.988
Aberdeen,38,9,easy,1,1.254
Aberdeen,38,10,hard,1,8.532
Aberdeen,38,11,easy,1,1.761
Aberdeen,38,12,absent,1,22.074
Aberdeen,38,13,absent,1,31.548
Aberdeen,38,14,easy,1,1.6
Aberdeen,38,15,hard,0,28.108
Aberdeen,38,16,absent,1,23.173
Aberdeen,38,17,absent,1,22.827
Aberdeen,38,18,absent,1,28.395
Aberdeen,38,19,absent,1,28.462
Aberdeen,38,20,absent,1,26.801
Aberdeen,38,21,easy,1,1.044
Aberdeen,38,22,absent,1,25.052
Aberdeen,38,23,hard,0,25.52
Aberdeen,38,24,easy,1,1.238
Aberdeen,38,25,absent,1,20.486
Aberdeen,38,26,absent,1,15.733
Aberdeen,38,27,absent,1,26.074
Aberdeen,38,28,absent,1,25.413
Aberdeen,38,29,hard,1,23.333
Aberdeen,38,30,hard,0,21.233
Aberdeen,38,31,absent,1,22.8
Aberdeen,38,32,absent,1,35.694
Aberdeen,38,33,absent,1,42.627
Aberdeen,38,34,absent,1,31.903
Aberdeen,38,35,easy,1,1.238
Aberdeen,38,36,easy,1,0.998
Aberdeen,38,37,hard,1,11.857
Aberdeen,38,38,absent,1,18.031
Aberdeen,38,39,easy,1,1.531
Aberdeen,38,40,absent,1,24.608
Aberdeen,38,41,absent,1,25.998
Aberdeen,38,42,easy,1,1.635
Aberdeen,38,43,absent,1,18.036
Aberdeen,38,44,hard,0,13.897
Aberdeen,38,45,absent,1,30.861
Aberdeen,38,46,absent,1,23.157
Aberdeen,38,47,hard,0,26.466
Aberdeen,38,48,easy,1,1.188
Aberdeen,38,49,hard,0,18.618
Aberdeen,38,50,hard,0,24.455
Aberdeen,38,51,absent,1,29.025
Aberdeen,38,52,easy,1,1.313
Aberdeen,38,53,hard,1,14.25
Aberdeen,38,54,absent,1,22.034
Aberdeen,38,55,absent,1,18.344
Aberdeen,38,56,easy,1,1.548
Aberdeen,38,57,absent,1,15.02
Aberdeen,38,58,hard,0,24.561
Aberdeen,38,59,absent,1,30.517
Aberdeen,38,60,hard,0,20.282
Aberdeen,38,61,hard,1,19.907
Aberdeen,38,62,absent,1,24.927
Aberdeen,38,63,easy,1,1.468
Aberdeen,38,64,hard,0,22.358
Aberdeen,38,65,absent,1,20.056
Aberdeen,38,66,easy,1,0.868
Aberdeen,38,67,absent,1,13.496
Aberdeen,38,68,hard,1,17.149
Aberdeen,38,69,absent,1,23.896
Aberdeen,38,70,absent,1,22.584
Aberdeen,38,71,absent,1,18.348
Aberdeen,38,72,absent,1,19.914
Aberdeen,38,73,easy,1,1.027
Aberdeen,38,74,easy,1,1.483
Aberdeen,38,75,absent,1,24.11
Aberdeen,38,76,easy,1,0.788
Aberdeen,38,77,absent,1,26.025
Aberdeen,38,78,hard,0,26.526
Aberdeen,38,79,easy,1,0.934
Aberdeen,38,80,easy,1,0.711
Aberdeen,38,81,absent,0,20.056
Aberdeen,38,82,easy,1,0.932
Aberdeen,38,83,absent,1,6.184
Aberdeen,38,84,hard,0,4.616
Aberdeen,38,85,hard,1,9.504
Aberdeen,38,86,absent,1,11.724
Aberdeen,38,87,absent,1,12.65
Aberdeen,38,88,absent,1,19.558
Aberdeen,38,89,absent,1,12.842
Aberdeen,38,90,hard,0,19.346
Aberdeen,38,91,absent,1,20.977
Aberdeen,38,92,hard,0,23.564
Aberdeen,38,93,absent,1,16.157
Aberdeen,38,94,hard,0,14.642
Aberdeen,38,95,easy,1,1.044
Aberdeen,38,96,absent,1,18.73
Aberdeen,38,97,easy,1,1.139
Aberdeen,38,98,hard,0,20.214
Aberdeen,38,99,absent,1,17.32
Aberdeen,38,100,absent,1,18.695
Aberdeen,38,101,easy,1,0.825
Aberdeen,38,102,absent,1,20.953
Aberdeen,39,7,absent,1,8.649
Aberdeen,39,8,absent,1,10.092
Aberdeen,39,9,hard,1,4.781
Aberdeen,39,10,hard,0,11.561
Aberdeen,39,11,absent,1,16.378
Aberdeen,39,12,hard,1,5.925
Aberdeen,39,13,easy,1,1.062
Aberdeen,39,14,absent,1,8.797
Aberdeen,39,15,absent,1,13.852
Aberdeen,39,16,easy,1,0.887
Aberdeen,39,17,easy,1,4.603
Aberdeen,39,18,absent,1,10.03
Aberdeen,39,19,easy,1,0.906
Aberdeen,39,20,hard,0,11.151
Aberdeen,39,21,absent,1,14.393
Aberdeen,39,22,absent,1,12.153
Aberdeen,39,23,absent,1,18.772
Aberdeen,39,24,absent,1,12.507
Aberdeen,39,25,easy,1,0.704
Aberdeen,39,26,easy,1,0.679
Aberdeen,39,27,absent,1,9.05
Aberdeen,39,28,hard,1,8.042
Aberdeen,39,29,absent,1,12.412
Aberdeen,39,30,hard,1,6.131
Aberdeen,39,31,absent,1,7.531
Aberdeen,39,32,absent,1,6.918
Aberdeen,39,33,absent,1,8.257
Aberdeen,39,34,easy,1,0.562
Aberdeen,39,35,hard,1,6.85
Aberdeen,39,36,hard,0,12.323
Aberdeen,39,37,absent,1,12.042
Aberdeen,39,38,absent,1,11.774
Aberdeen,39,39,easy,1,0.627
Aberdeen,39,41,easy,1,0.776
Aberdeen,39,42,absent,1,7.13
Aberdeen,39,43,hard,0,10.635
Aberdeen,39,44,hard,0,14.834
Aberdeen,39,45,absent,1,14.855
Aberdeen,39,46,easy,1,0.765
Aberdeen,39,47,absent,1,9.62
Aberdeen,39,48,easy,1,0.938
Aberdeen,39,49,absent,1,10.227
Aberdeen,39,50,absent,1,12.944
Aberdeen,39,51,hard,0,8.667
Aberdeen,39,52,hard,0,16.865
Aberdeen,39,53,easy,1,0.828
Aberdeen,39,54,absent,1,18.054
Aberdeen,39,55,absent,1,10.504
Aberdeen,39,56,absent,1,12.622
Aberdeen,39,57,absent,1,18.058
Aberdeen,39,58,absent,1,11.306
Aberdeen,39,59,easy,1,0.849
Aberdeen,39,60,absent,1,17.871
Aberdeen,39,61,easy,1,0.785
Aberdeen,39,62,absent,1,16.654
Aberdeen,39,63,absent,1,11.268
Aberdeen,39,64,absent,1,12.29
Aberdeen,39,65,hard,1,2.76
Aberdeen,39,66,hard,1,10.101
Aberdeen,39,67,absent,1,8.161
Aberdeen,39,68,hard,1,13.511
Aberdeen,39,69,easy,1,0.917
Aberdeen,39,70,hard,0,14.891
Aberdeen,39,71,absent,1,16.448
Aberdeen,39,72,easy,1,0.939
Aberdeen,39,73,hard,0,12.106
Aberdeen,39,74,hard,1,10.745
Aberdeen,39,75,absent,1,12.357
Aberdeen,39,76,easy,1,0.895
Aberdeen,39,77,absent,1,11.282
Aberdeen,39,78,easy,1,0.893
Aberdeen,39,79,hard,0,13.441
Aberdeen,39,80,easy,1,0.958
Aberdeen,39,81,absent,1,13.444
Aberdeen,39,82,easy,1,0.86
Aberdeen,39,84,absent,1,11.677
Aberdeen,39,85,hard,1,10.757
Aberdeen,39,86,absent,1,14.542
Aberdeen,39,87,absent,1,16.82
Aberdeen,39,88,easy,1,1.045
Aberdeen,39,89,absent,1,15.971
Aberdeen,39,90,easy,1,0.804
Aberdeen,39,91,hard,0,13.654
Aberdeen,39,92,hard,0,12.517
Aberdeen,39,93,easy,1,0.966
Aberdeen,39,94,absent,1,10.261
Aberdeen,39,95,absent,1,14.059
Aberdeen,39,96,easy,1,1.05
Aberdeen,39,97,hard,1,5.729
Aberdeen,39,98,absent,1,13.513
Aberdeen,39,99,hard,1,17.393
Aberdeen,39,100,absent,1,15.913
Aberdeen,39,101,absent,1,13.035
Aberdeen,39,102,absent,1,11.663
Aberdeen,40,7,absent,1,6.688
Aberdeen,40,8,absent,1,8.867
Aberdeen,40,9,hard,1,8.285
Aberdeen,40,10,easy,1,0.749
Aberdeen,40,11,easy,1,0.845
Aberdeen,40,12,absent,1,9.274
Aberdeen,40,13,easy,1,0.568
Aberdeen,40,14,absent,1,11.581
Aberdeen,40,15,hard,0,9.572
